subid,gender,trial,run,choice_raw,offer_propoer,conds,RT,offer_recipt,choice,in_outgroup
9151,2,1,1,0,6,3,2.461,6,1,2
9151,2,2,1,0,6,1,1.662,6,1,1
9151,2,3,1,2,9,2,3.152,3,2,1
9151,2,4,1,4,12,4,4.354,0,3,2
9151,2,5,1,2,7,1,3.249,5,2,1
9151,2,6,1,4,9,4,2.355,3,3,2
9151,2,7,1,6,12,2,4.602,0,4,1
9151,2,8,1,6,12,4,2.736,0,4,2
9151,2,9,1,0,7,3,3.545,5,1,2
9151,2,10,1,2,9,4,2.113,3,2,2
9151,2,11,1,6,12,4,2.392,0,4,2
9151,2,12,1,2,9,2,2.949,3,2,1
9151,2,13,1,2,7,1,1.628,5,2,1
9151,2,14,1,6,12,4,1.454,0,4,2
9151,2,15,1,6,12,2,1.906,0,4,1
9151,2,16,1,0,7,3,1.33,5,1,2
9151,2,17,1,0,6,1,1.799,6,1,1
9151,2,18,1,4,9,4,2.958,3,3,2
9151,2,19,1,0,6,1,1.429,6,1,1
9151,2,20,1,2,6,3,3.402,6,2,2
9151,2,21,1,6,12,2,3.587,0,4,1
9151,2,22,1,6,12,4,1.563,0,4,2
9151,2,23,1,2,7,1,1.832,5,2,1
9151,2,24,1,2,9,2,2.952,3,2,1
9151,2,25,1,2,9,4,1.298,3,2,2
9151,2,26,1,2,7,3,2.553,5,2,2
9151,2,27,1,0,7,1,2.576,5,1,1
9151,2,28,1,0,6,3,1.431,6,1,2
9151,2,29,1,2,9,4,2.215,3,2,2
9151,2,30,1,2,9,2,2.055,3,2,1
9151,2,31,1,6,12,2,2.524,0,4,1
9151,2,32,1,6,12,4,1.348,0,4,2
9151,2,33,1,4,9,4,2.229,3,3,2
9151,2,34,1,4,9,4,1.133,3,3,2
9151,2,35,1,2,7,1,3.538,5,2,1
9151,2,36,1,2,7,3,1.585,5,2,2
9151,2,37,1,2,9,2,3.076,3,2,1
9151,2,38,1,0,6,3,0.983,6,1,2
9151,2,39,1,2,9,2,1.346,3,2,1
9151,2,40,1,0,6,1,0.943,6,1,1
9151,2,41,1,2,7,1,1.554,5,2,1
9151,2,42,1,2,7,3,2.134,5,2,2
9151,2,43,1,0,6,1,1.124,6,1,1
9151,2,44,1,2,7,3,1.159,5,2,2
9151,2,45,1,6,12,4,1.25,0,4,2
9151,2,46,1,0,6,1,0.915,6,1,1
9151,2,47,1,0,6,3,0.682,6,1,2
9151,2,48,1,4,9,4,2.476,3,3,2
9151,2,49,1,6,12,2,1.256,0,4,1
9151,2,50,1,2,9,2,1.964,3,2,1
9151,2,51,1,0,6,1,0.944,6,1,1
9151,2,52,1,2,7,1,1.829,5,2,1
9151,2,53,1,0,6,1,0.792,6,1,1
9151,2,54,1,6,12,2,1.244,0,4,1
9151,2,55,1,6,12,4,1.238,0,4,2
9151,2,56,1,0,6,3,0.955,6,1,2
9151,2,57,1,2,7,3,1.882,5,2,2
9151,2,58,1,2,9,2,1.832,3,2,1
9151,2,59,1,0,6,1,0.89,6,1,1
9151,2,60,1,6,12,2,1.412,0,4,1
9151,2,61,1,0,7,3,1.761,5,1,2
9151,2,62,1,2,9,4,1.202,3,2,2
9151,2,63,1,2,7,1,1.733,5,2,1
9151,2,64,1,6,12,2,2.166,0,4,1
9151,2,65,1,0,6,3,1.082,6,1,2
9151,2,67,1,2,9,2,1.572,3,2,1
9151,2,68,1,0,6,3,0.922,6,1,2
9151,2,69,1,6,12,2,1.233,0,4,1
9151,2,70,1,0,6,3,0.814,6,1,2
9151,2,71,1,6,12,4,1.198,0,4,2
9151,2,72,1,0,7,1,1.103,5,1,1
9151,2,1,2,2,9,2,2.179,3,2,1
9151,2,2,2,2,7,3,1.113,5,2,2
9151,2,3,2,0,6,1,0.846,6,1,1
9151,2,4,2,6,12,2,1.656,0,4,1
9151,2,5,2,2,7,1,1.156,5,2,1
9151,2,6,2,0,6,1,0.979,6,1,1
9151,2,7,2,0,6,3,1.928,6,1,2
9151,2,8,2,6,12,2,1.214,0,4,1
9151,2,9,2,2,7,3,1.674,5,2,2
9151,2,10,2,4,9,4,2.062,3,3,2
9151,2,11,2,4,9,4,1.463,3,3,2
9151,2,12,2,4,9,2,1.914,3,3,1
9151,2,13,2,0,6,3,0.963,6,1,2
9151,2,14,2,6,12,4,1.62,0,4,2
9151,2,15,2,2,7,3,1.309,5,2,2
9151,2,16,2,2,7,3,0.863,5,2,2
9151,2,17,2,6,12,4,1.335,0,4,2
9151,2,18,2,2,7,1,1.635,5,2,1
9151,2,19,2,0,6,3,0.982,6,1,2
9151,2,20,2,6,12,2,2.369,0,4,1
9151,2,21,2,4,9,4,1.7,3,3,2
9151,2,22,2,6,12,2,1.58,0,4,1
9151,2,23,2,6,12,4,1.423,0,4,2
9151,2,24,2,2,9,2,1.16,3,2,1
9151,2,25,2,6,12,2,1.05,0,4,1
9151,2,26,2,0,6,1,0.928,6,1,1
9151,2,27,2,6,12,4,1.489,0,4,2
9151,2,28,2,6,12,2,1.102,0,4,1
9151,2,29,2,0,6,3,0.898,6,1,2
9151,2,30,2,0,6,1,1.471,6,1,1
9151,2,31,2,0,6,3,1.401,6,1,2
9151,2,32,2,4,9,4,2.357,3,3,2
9151,2,33,2,2,7,1,2.589,5,2,1
9151,2,34,2,0,9,4,1.147,3,1,2
9151,2,35,2,2,9,2,2.681,3,2,1
9151,2,36,2,6,12,4,1.523,0,4,2
9151,2,37,2,0,7,3,1.038,5,1,2
9151,2,38,2,4,9,4,2.422,3,3,2
9151,2,39,2,0,6,3,0.804,6,1,2
9151,2,40,2,2,7,3,1.546,5,2,2
9151,2,41,2,0,6,1,0.986,6,1,1
9151,2,42,2,6,12,2,1.762,0,4,1
9151,2,43,2,0,7,1,2.094,5,1,1
9151,2,44,2,6,12,4,1.412,0,4,2
9151,2,45,2,4,9,4,2.235,3,3,2
9151,2,46,2,2,7,1,2.47,5,2,1
9151,2,47,2,2,9,2,1.365,3,2,1
9151,2,48,2,2,9,2,2.196,3,2,1
9151,2,49,2,6,12,4,0.924,0,4,2
9151,2,50,2,0,6,1,0.89,6,1,1
9151,2,51,2,0,6,1,1.158,6,1,1
9151,2,52,2,4,9,2,2.382,3,3,1
9151,2,53,2,2,7,1,1.966,5,2,1
9151,2,54,2,0,6,3,1.77,6,1,2
9151,2,55,2,6,12,2,1.445,0,4,1
9151,2,56,2,0,6,1,0.871,6,1,1
9151,2,57,2,6,12,4,1.157,0,4,2
9151,2,58,2,4,9,4,2.531,3,3,2
9151,2,59,2,0,7,1,4.745,5,1,1
9151,2,60,2,2,7,3,1.907,5,2,2
9151,2,61,2,6,12,4,1.205,0,4,2
9151,2,62,2,0,6,3,0.982,6,1,2
9151,2,63,2,0,6,1,0.885,6,1,1
9151,2,64,2,2,9,2,3.073,3,2,1
9151,2,65,2,0,7,3,3.164,5,1,2
9151,2,66,2,4,9,4,1.97,3,3,2
9151,2,67,2,4,9,2,2.7,3,3,1
9151,2,68,2,0,6,3,1.264,6,1,2
9151,2,69,2,6,12,2,1.8,0,4,1
9151,2,70,2,2,7,1,2.238,5,2,1
9151,2,71,2,0,7,1,0.776,5,1,1
9151,2,72,2,0,7,3,1.411,5,1,2
9101,2,1,2,0,6,3,2.719,6,1,2
9101,2,2,2,0,6,1,2.473,6,1,1
9101,2,3,2,2,9,2,3.498,3,2,1
9101,2,5,2,0,7,1,2.483,5,1,1
9101,2,6,2,2,9,4,3.244,3,2,2
9101,2,7,2,6,12,2,4.939,0,4,1
9101,2,8,2,6,12,4,2.506,0,4,2
9101,2,9,2,0,7,3,2.564,5,1,2
9101,2,10,2,4,9,4,4.227,3,3,2
9101,2,11,2,6,12,4,1.939,0,4,2
9101,2,12,2,0,9,2,3.481,3,1,1
9101,2,13,2,0,7,1,1.07,5,1,1
9101,2,14,2,6,12,4,1.424,0,4,2
9101,2,15,2,6,12,2,1.308,0,4,1
9101,2,16,2,0,7,3,1.412,5,1,2
9101,2,17,2,0,6,1,1.569,6,1,1
9101,2,18,2,4,9,4,1.896,3,3,2
9101,2,19,2,0,6,1,0.968,6,1,1
9101,2,20,2,0,6,3,1.221,6,1,2
9101,2,21,2,6,12,2,1.413,0,4,1
9101,2,22,2,6,12,4,1.173,0,4,2
9101,2,23,2,0,7,1,0.851,5,1,1
9101,2,24,2,2,9,2,2.802,3,2,1
9101,2,25,2,4,9,4,1.541,3,3,2
9101,2,26,2,0,7,3,0.947,5,1,2
9101,2,27,2,0,7,1,0.858,5,1,1
9101,2,28,2,0,6,3,1.026,6,1,2
9101,2,29,2,4,9,4,1.553,3,3,2
9101,2,30,2,2,9,2,2.089,3,2,1
9101,2,31,2,6,12,2,1.27,0,4,1
9101,2,32,2,6,12,4,0.949,0,4,2
9101,2,33,2,4,9,4,2.801,3,3,2
9101,2,34,2,4,9,4,0.903,3,3,2
9101,2,35,2,0,7,1,1.244,5,1,1
9101,2,36,2,0,7,3,0.739,5,1,2
9101,2,37,2,2,9,2,2.374,3,2,1
9101,2,38,2,0,6,3,0.929,6,1,2
9101,2,39,2,2,9,2,2.149,3,2,1
9101,2,40,2,0,6,1,0.906,6,1,1
9101,2,41,2,0,7,1,0.916,5,1,1
9101,2,42,2,0,7,3,1,5,1,2
9101,2,43,2,0,6,1,0.894,6,1,1
9101,2,44,2,0,7,3,0.937,5,1,2
9101,2,45,2,6,12,4,1.276,0,4,2
9101,2,46,2,0,6,1,0.71,6,1,1
9101,2,47,2,0,6,3,1.108,6,1,2
9101,2,48,2,2,9,4,1.302,3,2,2
9101,2,49,2,6,12,2,1.09,0,4,1
9101,2,50,2,2,9,2,1.639,3,2,1
9101,2,51,2,0,6,1,1.05,6,1,1
9101,2,52,2,0,7,1,0.847,5,1,1
9101,2,53,2,0,6,1,0.754,6,1,1
9101,2,54,2,6,12,2,1.159,0,4,1
9101,2,55,2,6,12,4,0.889,0,4,2
9101,2,56,2,0,6,3,0.837,6,1,2
9101,2,57,2,0,7,3,1.1,5,1,2
9101,2,58,2,2,9,2,1.61,3,2,1
9101,2,59,2,0,6,1,0.916,6,1,1
9101,2,60,2,6,12,2,1.406,0,4,1
9101,2,61,2,0,7,3,0.931,5,1,2
9101,2,62,2,2,9,4,0.957,3,2,2
9101,2,63,2,0,7,1,0.984,5,1,1
9101,2,64,2,6,12,2,1.16,0,4,1
9101,2,65,2,0,6,3,0.838,6,1,2
9101,2,66,2,0,7,3,0.841,5,1,2
9101,2,67,2,2,9,2,1.966,3,2,1
9101,2,68,2,0,6,3,0.924,6,1,2
9101,2,69,2,6,12,2,1.099,0,4,1
9101,2,70,2,0,6,3,0.792,6,1,2
9101,2,71,2,6,12,4,0.84,0,4,2
9101,2,72,2,0,7,1,0.85,5,1,1
9101,2,1,1,2,9,2,1.293,3,2,1
9101,2,2,1,0,7,3,1.314,5,1,2
9101,2,3,1,0,6,1,0.645,6,1,1
9101,2,4,1,6,12,2,0.832,0,4,1
9101,2,5,1,0,7,1,0.724,5,1,1
9101,2,6,1,0,6,1,0.924,6,1,1
9101,2,7,1,0,6,3,0.76,6,1,2
9101,2,8,1,6,12,2,1.086,0,4,1
9101,2,9,1,0,7,3,0.85,5,1,2
9101,2,10,1,2,9,4,2.318,3,2,2
9101,2,11,1,2,9,4,1.024,3,2,2
9101,2,12,1,2,9,2,1.362,3,2,1
9101,2,13,1,0,6,3,0.717,6,1,2
9101,2,14,1,6,12,4,1.197,0,4,2
9101,2,15,1,0,7,3,0.855,5,1,2
9101,2,16,1,0,7,3,0.784,5,1,2
9101,2,17,1,6,12,4,1.199,0,4,2
9101,2,18,1,0,7,1,0.747,5,1,1
9101,2,19,1,0,6,3,0.792,6,1,2
9101,2,20,1,6,12,2,1.297,0,4,1
9101,2,21,1,2,9,4,1.604,3,2,2
9101,2,22,1,6,12,2,1.189,0,4,1
9101,2,23,1,6,12,4,0.936,0,4,2
9101,2,24,1,2,9,2,1.026,3,2,1
9101,2,25,1,6,12,2,0.987,0,4,1
9101,2,26,1,0,6,1,0.84,6,1,1
9101,2,27,1,6,12,4,0.971,0,4,2
9101,2,28,1,6,12,2,0.863,0,4,1
9101,2,29,1,0,6,3,1.011,6,1,2
9101,2,30,1,0,6,1,0.656,6,1,1
9101,2,31,1,0,6,3,1.617,6,1,2
9101,2,32,1,2,9,4,1.029,3,2,2
9101,2,33,1,0,7,1,0.83,5,1,1
9101,2,34,1,2,9,4,1.365,3,2,2
9101,2,35,1,2,9,2,0.825,3,2,1
9101,2,36,1,6,12,4,2.684,0,4,2
9101,2,37,1,0,7,3,0.703,5,1,2
9101,2,38,1,2,9,4,1.207,3,2,2
9101,2,39,1,0,6,3,1.126,6,1,2
9101,2,40,1,0,7,3,0.755,5,1,2
9101,2,41,1,0,6,1,1.308,6,1,1
9101,2,42,1,6,12,2,1.083,0,4,1
9101,2,43,1,0,7,1,0.976,5,1,1
9101,2,44,1,6,12,4,0.966,0,4,2
9101,2,45,1,2,9,4,0.891,3,2,2
9101,2,46,1,0,7,1,0.776,5,1,1
9101,2,47,1,2,9,2,1.183,3,2,1
9101,2,48,1,2,9,2,0.812,3,2,1
9101,2,49,1,6,12,4,1.493,0,4,2
9101,2,50,1,0,6,1,0.772,6,1,1
9101,2,51,1,0,6,1,4.198,6,1,1
9101,2,52,1,2,9,2,0.709,3,2,1
9101,2,53,1,0,7,1,0.992,5,1,1
9101,2,54,1,0,6,3,0.883,6,1,2
9101,2,55,1,6,12,2,1.262,0,4,1
9101,2,56,1,0,6,1,0.696,6,1,1
9101,2,57,1,6,12,4,0.845,0,4,2
9101,2,58,1,2,9,4,1.339,3,2,2
9101,2,59,1,0,7,1,0.905,5,1,1
9101,2,60,1,0,7,3,0.797,5,1,2
9101,2,61,1,6,12,4,0.974,0,4,2
9101,2,62,1,0,6,3,0.503,6,1,2
9101,2,63,1,0,6,1,0.887,6,1,1
9101,2,64,1,2,9,2,0.898,3,2,1
9101,2,65,1,0,7,3,2.718,5,1,2
9101,2,66,1,2,9,4,1.234,3,2,2
9101,2,67,1,2,9,2,0.902,3,2,1
9101,2,68,1,0,6,3,0.786,6,1,2
9101,2,69,1,6,12,2,0.913,0,4,1
9101,2,70,1,0,7,1,1.054,5,1,1
9101,2,71,1,0,7,1,0.705,5,1,1
9101,2,72,1,0,7,3,0.94,5,1,2
9141,2,2,1,4,7,3,2.684,5,3,2
9141,2,3,1,2,6,1,3.248,6,2,1
9141,2,5,1,4,7,1,2.67,5,3,1
9141,2,6,1,4,6,1,2.494,6,3,1
9141,2,7,1,6,6,3,2.21,6,4,2
9141,2,8,1,6,12,2,3.72,0,4,1
9141,2,9,1,6,7,3,3.277,5,4,2
9141,2,10,1,6,9,4,1.873,3,4,2
9141,2,11,1,6,9,4,2.49,3,4,2
9141,2,12,1,2,9,2,3.74,3,2,1
9141,2,13,1,4,6,3,1.871,6,3,2
9141,2,14,1,4,12,4,2.191,0,3,2
9141,2,15,1,6,7,3,2.025,5,4,2
9141,2,16,1,4,7,3,2.13,5,3,2
9141,2,17,1,6,12,4,1.186,0,4,2
9141,2,18,1,4,7,1,2.061,5,3,1
9141,2,19,1,4,6,3,2.89,6,3,2
9141,2,20,1,6,12,2,1.755,0,4,1
9141,2,21,1,6,9,4,1.718,3,4,2
9141,2,22,1,6,12,2,1.151,0,4,1
9141,2,23,1,6,12,4,1.73,0,4,2
9141,2,24,1,4,9,2,1.419,3,3,1
9141,2,25,1,6,12,2,1.045,0,4,1
9141,2,26,1,4,6,1,2.435,6,3,1
9141,2,27,1,6,12,4,1.229,0,4,2
9141,2,28,1,4,12,2,2.193,0,3,1
9141,2,29,1,4,6,3,1.501,6,3,2
9141,2,30,1,4,6,1,2.811,6,3,1
9141,2,31,1,4,6,3,4.515,6,3,2
9141,2,32,1,4,9,4,1.464,3,3,2
9141,2,33,1,4,7,1,2.687,5,3,1
9141,2,34,1,4,9,4,3.134,3,3,2
9141,2,35,1,4,9,2,3.34,3,3,1
9141,2,36,1,4,12,4,2.934,0,3,2
9141,2,37,1,4,7,3,2.49,5,3,2
9141,2,38,1,2,9,4,1.45,3,2,2
9141,2,39,1,2,6,3,3.199,6,2,2
9141,2,40,1,2,7,3,3.469,5,2,2
9141,2,41,1,0,6,1,2.734,6,1,1
9141,2,42,1,2,12,2,3.957,0,2,1
9141,2,43,1,0,7,1,3.481,5,1,1
9141,2,44,1,0,12,4,2.544,0,1,2
9141,2,45,1,0,9,4,2.95,3,1,2
9141,2,46,1,0,7,1,3.185,5,1,1
9141,2,47,1,0,9,2,2.817,3,1,1
9141,2,48,1,0,9,2,1.086,3,1,1
9141,2,49,1,2,12,4,2.454,0,2,2
9141,2,50,1,0,6,1,2.389,6,1,1
9141,2,51,1,0,6,1,0.864,6,1,1
9141,2,52,1,0,9,2,2.352,3,1,1
9141,2,53,1,0,7,1,1.746,5,1,1
9141,2,54,1,2,6,3,2.837,6,2,2
9141,2,55,1,0,12,2,2.793,0,1,1
9141,2,56,1,0,6,1,0.978,6,1,1
9141,2,57,1,2,12,4,1.639,0,2,2
9141,2,58,1,0,9,4,3.085,3,1,2
9141,2,59,1,0,7,1,2.684,5,1,1
9141,2,60,1,0,7,3,2.47,5,1,2
9141,2,61,1,2,12,4,1.96,0,2,2
9141,2,62,1,0,6,3,1.544,6,1,2
9141,2,63,1,0,6,1,0.72,6,1,1
9141,2,64,1,0,9,2,1.412,3,1,1
9141,2,65,1,0,7,3,0.976,5,1,2
9141,2,66,1,0,9,4,2.1,3,1,2
9141,2,67,1,0,9,2,1.672,3,1,1
9141,2,68,1,0,6,3,0.836,6,1,2
9141,2,69,1,0,12,2,2.268,0,1,1
9141,2,70,1,0,7,1,0.848,5,1,1
9141,2,71,1,0,7,1,1.484,5,1,1
9141,2,72,1,0,7,3,0.871,5,1,2
9141,2,1,2,0,6,3,2.957,6,1,2
9141,2,2,2,0,6,1,1.039,6,1,1
9141,2,3,2,2,9,2,2.8,3,2,1
9141,2,4,2,4,12,4,2.314,0,3,2
9141,2,5,2,0,7,1,0.963,5,1,1
9141,2,6,2,0,9,4,3.683,3,1,2
9141,2,7,2,2,12,2,2.833,0,2,1
9141,2,8,2,4,12,4,1.448,0,3,2
9141,2,9,2,0,7,3,1.21,5,1,2
9141,2,10,2,0,9,4,2.017,3,1,2
9141,2,11,2,4,12,4,2.233,0,3,2
9141,2,12,2,0,9,2,1.071,3,1,1
9141,2,13,2,0,7,1,0.828,5,1,1
9141,2,14,2,4,12,4,1.286,0,3,2
9141,2,15,2,2,12,2,2.058,0,2,1
9141,2,16,2,0,7,3,1.202,5,1,2
9141,2,17,2,0,6,1,0.816,6,1,1
9141,2,18,2,0,9,4,1.838,3,1,2
9141,2,19,2,0,6,1,0.854,6,1,1
9141,2,20,2,0,6,3,2.147,6,1,2
9141,2,21,2,2,12,2,1.723,0,2,1
9141,2,22,2,4,12,4,2.019,0,3,2
9141,2,23,2,0,7,1,0.833,5,1,1
9141,2,24,2,0,9,2,1.016,3,1,1
9141,2,25,2,0,9,4,1.075,3,1,2
9141,2,26,2,0,7,3,0.905,5,1,2
9141,2,27,2,0,7,1,0.712,5,1,1
9141,2,28,2,0,6,3,1.4,6,1,2
9141,2,29,2,2,9,4,2.52,3,2,2
9141,2,30,2,0,9,2,1.111,3,1,1
9141,2,31,2,0,12,2,2.212,0,1,1
9141,2,32,2,4,12,4,2.044,0,3,2
9141,2,33,2,0,9,4,2.414,3,1,2
9141,2,34,2,2,9,4,1.837,3,2,2
9141,2,35,2,0,7,1,0.899,5,1,1
9141,2,36,2,0,7,3,1.242,5,1,2
9141,2,37,2,0,9,2,1.06,3,1,1
9141,2,38,2,2,6,3,2.071,6,2,2
9141,2,39,2,0,9,2,1.251,3,1,1
9141,2,40,2,0,6,1,0.735,6,1,1
9141,2,41,2,0,7,1,0.762,5,1,1
9141,2,42,2,2,7,3,2.038,5,2,2
9141,2,43,2,0,6,1,0.996,6,1,1
9141,2,44,2,2,7,3,1.479,5,2,2
9141,2,45,2,4,12,4,1.77,0,3,2
9141,2,46,2,0,6,1,0.652,6,1,1
9141,2,47,2,0,6,3,1.722,6,1,2
9141,2,48,2,2,9,4,1.876,3,2,2
9141,2,49,2,0,12,2,2.536,0,1,1
9141,2,50,2,0,9,2,0.925,3,1,1
9141,2,51,2,0,6,1,0.912,6,1,1
9141,2,52,2,0,7,1,0.909,5,1,1
9141,2,53,2,0,6,1,0.808,6,1,1
9141,2,54,2,0,12,2,1.309,0,1,1
9141,2,55,2,4,12,4,1.328,0,3,2
9141,2,56,2,0,6,3,1.283,6,1,2
9141,2,57,2,2,7,3,1.738,5,2,2
9141,2,58,2,0,9,2,1.097,3,1,1
9141,2,59,2,0,6,1,0.722,6,1,1
9141,2,60,2,0,12,2,1.004,0,1,1
9141,2,61,2,2,7,3,1.289,5,2,2
9141,2,62,2,2,9,4,1.403,3,2,2
9141,2,63,2,0,7,1,0.766,5,1,1
9141,2,64,2,0,12,2,1.006,0,1,1
9141,2,65,2,0,6,3,1.419,6,1,2
9141,2,66,2,2,7,3,1.287,5,2,2
9141,2,67,2,0,9,2,1.174,3,1,1
9141,2,68,2,0,6,3,0.914,6,1,2
9141,2,69,2,0,12,2,1.201,0,1,1
9141,2,70,2,0,6,3,1.054,6,1,2
9141,2,71,2,4,12,4,1.734,0,3,2
9141,2,72,2,0,7,1,0.752,5,1,1
9111,2,1,1,0,6,3,3.412,6,1,2
9111,2,2,1,0,6,1,2.309,6,1,1
9111,2,3,1,2,9,2,3.286,3,2,1
9111,2,4,1,6,12,4,2.065,0,4,2
9111,2,5,1,2,7,1,2.385,5,2,1
9111,2,6,1,2,9,4,1.313,3,2,2
9111,2,7,1,4,12,2,4.263,0,3,1
9111,2,8,1,4,12,4,1.12,0,3,2
9111,2,9,1,2,7,3,1.264,5,2,2
9111,2,10,1,2,9,4,1.24,3,2,2
9111,2,11,1,4,12,4,1.343,0,3,2
9111,2,12,1,2,9,2,1.565,3,2,1
9111,2,13,1,0,7,1,2.186,5,1,1
9111,2,14,1,4,12,4,1.428,0,3,2
9111,2,15,1,4,12,2,1.056,0,3,1
9111,2,16,1,0,7,3,1.872,5,1,2
9111,2,17,1,0,6,1,1.159,6,1,1
9111,2,18,1,2,9,4,2.837,3,2,2
9111,2,19,1,0,6,1,1.212,6,1,1
9111,2,20,1,0,6,3,0.873,6,1,2
9111,2,21,1,6,12,2,3.417,0,4,1
9111,2,22,1,6,12,4,2.226,0,4,2
9111,2,23,1,0,7,1,1.871,5,1,1
9111,2,24,1,2,9,2,2.807,3,2,1
9111,2,25,1,2,9,4,1.401,3,2,2
9111,2,26,1,0,7,3,1.688,5,1,2
9111,2,27,1,0,7,1,0.934,5,1,1
9111,2,28,1,0,6,3,0.919,6,1,2
9111,2,29,1,2,9,4,3.918,3,2,2
9111,2,30,1,2,9,2,1.933,3,2,1
9111,2,31,1,4,12,2,3.378,0,3,1
9111,2,32,1,4,12,4,1.698,0,3,2
9111,2,33,1,2,9,4,1.869,3,2,2
9111,2,34,1,2,9,4,1.699,3,2,2
9111,2,35,1,0,7,1,1.313,5,1,1
9111,2,36,1,0,7,3,0.841,5,1,2
9111,2,37,1,2,9,2,2.667,3,2,1
9111,2,38,1,0,6,3,1.006,6,1,2
9111,2,39,1,2,9,2,1.305,3,2,1
9111,2,40,1,0,6,1,0.942,6,1,1
9111,2,41,1,0,7,1,0.968,5,1,1
9111,2,42,1,0,7,3,0.78,5,1,2
9111,2,43,1,0,6,1,0.779,6,1,1
9111,2,44,1,0,7,3,0.838,5,1,2
9111,2,45,1,4,12,4,1.681,0,3,2
9111,2,46,1,0,6,1,0.93,6,1,1
9111,2,47,1,0,6,3,0.929,6,1,2
9111,2,48,1,2,9,4,2.988,3,2,2
9111,2,49,1,4,12,2,1.631,0,3,1
9111,2,50,1,2,9,2,2.915,3,2,1
9111,2,51,1,0,6,1,0.846,6,1,1
9111,2,52,1,0,7,1,1.267,5,1,1
9111,2,53,1,0,6,1,0.774,6,1,1
9111,2,54,1,4,12,2,1.147,0,3,1
9111,2,55,1,4,12,4,1.518,0,3,2
9111,2,56,1,0,6,3,0.891,6,1,2
9111,2,57,1,0,7,3,0.832,5,1,2
9111,2,58,1,2,9,2,4.112,3,2,1
9111,2,59,1,0,6,1,0.785,6,1,1
9111,2,60,1,4,12,2,1.29,0,3,1
9111,2,61,1,0,7,3,0.879,5,1,2
9111,2,62,1,2,9,4,3.433,3,2,2
9111,2,63,1,0,7,1,0.916,5,1,1
9111,2,64,1,4,12,2,1.516,0,3,1
9111,2,65,1,0,6,3,0.826,6,1,2
9111,2,66,1,0,7,3,0.813,5,1,2
9111,2,67,1,0,9,2,1.676,3,1,1
9111,2,68,1,0,6,3,0.777,6,1,2
9111,2,69,1,4,12,2,1.136,0,3,1
9111,2,70,1,0,6,3,0.86,6,1,2
9111,2,71,1,4,12,4,1.053,0,3,2
9111,2,72,1,0,7,1,0.862,5,1,1
9111,2,1,2,4,9,2,2.381,3,3,1
9111,2,2,2,0,7,3,0.859,5,1,2
9111,2,3,2,0,6,1,0.799,6,1,1
9111,2,4,2,4,12,2,1.578,0,3,1
9111,2,5,2,0,7,1,0.909,5,1,1
9111,2,6,2,0,6,1,0.798,6,1,1
9111,2,7,2,0,6,3,0.841,6,1,2
9111,2,8,2,4,12,2,1.063,0,3,1
9111,2,9,2,0,7,3,0.844,5,1,2
9111,2,10,2,2,9,4,2.056,3,2,2
9111,2,11,2,2,9,4,0.937,3,2,2
9111,2,12,2,2,9,2,1.123,3,2,1
9111,2,13,2,0,6,3,0.918,6,1,2
9111,2,14,2,4,12,4,1.006,0,3,2
9111,2,15,2,0,7,3,0.96,5,1,2
9111,2,16,2,0,7,3,0.689,5,1,2
9111,2,17,2,4,12,4,1.713,0,3,2
9111,2,18,2,0,7,1,0.941,5,1,1
9111,2,19,2,0,6,3,0.737,6,1,2
9111,2,20,2,4,12,2,0.963,0,3,1
9111,2,21,2,2,9,4,1.261,3,2,2
9111,2,22,2,4,12,2,0.894,0,3,1
9111,2,23,2,4,12,4,1.025,0,3,2
9111,2,24,2,2,9,2,2.05,3,2,1
9111,2,25,2,4,12,2,0.829,0,3,1
9111,2,26,2,0,6,1,0.906,6,1,1
9111,2,27,2,4,12,4,2.1,0,3,2
9111,2,28,2,4,12,2,1.377,0,3,1
9111,2,29,2,0,6,3,0.78,6,1,2
9111,2,30,2,0,6,1,0.73,6,1,1
9111,2,31,2,0,6,3,0.659,6,1,2
9111,2,32,2,4,9,4,1.111,3,3,2
9111,2,33,2,0,7,1,0.879,5,1,1
9111,2,34,2,4,9,4,1.029,3,3,2
9111,2,35,2,4,9,2,0.835,3,3,1
9111,2,36,2,4,12,4,0.958,0,3,2
9111,2,37,2,0,7,3,0.953,5,1,2
9111,2,38,2,2,9,4,1.497,3,2,2
9111,2,39,2,0,6,3,0.758,6,1,2
9111,2,40,2,0,7,3,0.868,5,1,2
9111,2,41,2,0,6,1,0.765,6,1,1
9111,2,42,2,4,12,2,1.436,0,3,1
9111,2,43,2,0,7,1,0.792,5,1,1
9111,2,44,2,4,12,4,1.407,0,3,2
9111,2,45,2,2,9,4,1.445,3,2,2
9111,2,46,2,0,7,1,0.712,5,1,1
9111,2,47,2,2,9,2,1.608,3,2,1
9111,2,48,2,2,9,2,2.469,3,2,1
9111,2,49,2,4,12,4,0.853,0,3,2
9111,2,50,2,0,6,1,0.788,6,1,1
9111,2,51,2,0,6,1,0.824,6,1,1
9111,2,52,2,2,9,2,1.271,3,2,1
9111,2,53,2,0,7,1,0.826,5,1,1
9111,2,54,2,0,6,3,0.628,6,1,2
9111,2,55,2,4,12,2,2.752,0,3,1
9111,2,56,2,0,6,1,2.329,6,1,1
9111,2,57,2,4,12,4,0.838,0,3,2
9111,2,58,2,2,9,4,1.621,3,2,2
9111,2,59,2,0,7,1,0.859,5,1,1
9111,2,60,2,0,7,3,0.621,5,1,2
9111,2,61,2,4,12,4,1.2,0,3,2
9111,2,62,2,0,6,3,0.672,6,1,2
9111,2,63,2,0,6,1,0.695,6,1,1
9111,2,64,2,2,9,2,2.227,3,2,1
9111,2,65,2,0,7,3,0.887,5,1,2
9111,2,66,2,2,9,4,1.492,3,2,2
9111,2,67,2,2,9,2,1.391,3,2,1
9111,2,68,2,0,6,3,0.699,6,1,2
9231,2,1,1,0,6,3,2.656,6,1,2
9231,2,2,1,2,6,1,2.538,6,2,1
9231,2,3,1,4,9,2,4.563,3,3,1
9231,2,4,1,6,12,4,5.214,0,4,2
9231,2,5,1,2,7,1,5.485,5,2,1
9231,2,6,1,2,9,4,5.254,3,2,2
9231,2,7,1,6,12,2,5.541,0,4,1
9231,2,9,1,4,7,3,2.925,5,3,2
9231,2,10,1,4,9,4,4.829,3,3,2
9231,2,11,1,4,12,4,4.02,0,3,2
9231,2,12,1,2,9,2,4.138,3,2,1
9231,2,13,1,2,7,1,2.863,5,2,1
9231,2,14,1,4,12,4,2.49,0,3,2
9231,2,15,1,6,12,2,1.373,0,4,1
9231,2,16,1,2,7,3,3.854,5,2,2
9231,2,17,1,0,6,1,1.819,6,1,1
9231,2,18,1,2,9,4,2.738,3,2,2
9231,2,19,1,0,6,1,1.081,6,1,1
9231,2,20,1,2,6,3,1.622,6,2,2
9231,2,21,1,6,12,2,1.711,0,4,1
9231,2,22,1,4,12,4,2.847,0,3,2
9231,2,23,1,2,7,1,3.956,5,2,1
9231,2,24,1,4,9,2,4.116,3,3,1
9231,2,25,1,4,9,4,1.206,3,3,2
9231,2,26,1,2,7,3,4.316,5,2,2
9231,2,27,1,2,7,1,1.636,5,2,1
9231,2,28,1,0,6,3,2.388,6,1,2
9231,2,29,1,4,9,4,3.155,3,3,2
9231,2,30,1,2,9,2,0.786,3,2,1
9231,2,31,1,6,12,2,1.872,0,4,1
9231,2,32,1,6,12,4,0.935,0,4,2
9231,2,33,1,2,9,4,3.434,3,2,2
9231,2,34,1,2,9,4,1.257,3,2,2
9231,2,35,1,2,7,1,3.221,5,2,1
9231,2,36,1,4,7,3,3.013,5,3,2
9231,2,37,1,4,9,2,3.015,3,3,1
9231,2,38,1,0,6,3,0.738,6,1,2
9231,2,39,1,2,9,2,2.791,3,2,1
9231,2,40,1,0,6,1,0.731,6,1,1
9231,2,41,1,0,7,1,1.501,5,1,1
9231,2,42,1,0,7,3,0.826,5,1,2
9231,2,43,1,0,6,1,0.879,6,1,1
9231,2,44,1,2,7,3,1.755,5,2,2
9231,2,45,1,4,12,4,2.046,0,3,2
9231,2,46,1,0,6,1,0.759,6,1,1
9231,2,47,1,0,6,3,0.814,6,1,2
9231,2,48,1,2,9,4,2.416,3,2,2
9231,2,49,1,4,12,2,1.187,0,3,1
9231,2,50,1,2,9,2,1.641,3,2,1
9231,2,51,1,0,6,1,0.747,6,1,1
9231,2,52,1,0,7,1,4.633,5,1,1
9231,2,53,1,0,6,1,0.843,6,1,1
9231,2,54,1,4,12,2,4.088,0,3,1
9231,2,55,1,2,12,4,4.147,0,2,2
9231,2,56,1,0,6,3,0.75,6,1,2
9231,2,57,1,2,7,3,2.397,5,2,2
9231,2,58,1,4,9,2,3.244,3,3,1
9231,2,59,1,0,6,1,0.838,6,1,1
9231,2,60,1,4,12,2,3.384,0,3,1
9231,2,61,1,0,7,3,1.732,5,1,2
9231,2,62,1,2,9,4,2.31,3,2,2
9231,2,63,1,2,7,1,1.961,5,2,1
9231,2,64,1,4,12,2,3.241,0,3,1
9231,2,65,1,0,6,3,0.759,6,1,2
9231,2,66,1,2,7,3,4.618,5,2,2
9231,2,67,1,2,9,2,1.072,3,2,1
9231,2,68,1,0,6,3,0.701,6,1,2
9231,2,69,1,4,12,2,2.021,0,3,1
9231,2,70,1,0,6,3,0.946,6,1,2
9231,2,71,1,6,12,4,3.009,0,4,2
9231,2,72,1,2,7,1,2.979,5,2,1
9231,2,1,2,2,9,2,5.11,3,2,1
9231,2,2,2,4,7,3,4.972,5,3,2
9231,2,3,2,0,6,1,1.816,6,1,1
9231,2,4,2,4,12,2,4.435,0,3,1
9231,2,5,2,0,7,1,4.254,5,1,1
9231,2,6,2,0,6,1,3.286,6,1,1
9231,2,7,2,0,6,3,1.314,6,1,2
9231,2,8,2,6,12,2,4.664,0,4,1
9231,2,9,2,2,7,3,3.869,5,2,2
9231,2,10,2,2,9,4,4.529,3,2,2
9231,2,11,2,4,9,4,3.37,3,3,2
9231,2,12,2,2,9,2,2.388,3,2,1
9231,2,13,2,0,6,3,0.974,6,1,2
9231,2,14,2,6,12,4,3.55,0,4,2
9231,2,15,2,0,7,3,2.144,5,1,2
9231,2,16,2,2,7,3,4.37,5,2,2
9231,2,17,2,6,12,4,1.978,0,4,2
9231,2,18,2,0,7,1,3.325,5,1,1
9231,2,19,2,0,6,3,0.897,6,1,2
9231,2,20,2,4,12,2,4.22,0,3,1
9231,2,21,2,2,9,4,3.502,3,2,2
9231,2,22,2,6,12,2,2.647,0,4,1
9231,2,23,2,4,12,4,5.682,0,3,2
9231,2,24,2,2,9,2,2.739,3,2,1
9231,2,25,2,4,12,2,2.684,0,3,1
9231,2,26,2,0,6,1,1.003,6,1,1
9231,2,27,2,4,12,4,1.324,0,3,2
9231,2,28,2,4,12,2,4.041,0,3,1
9231,2,29,2,0,6,3,0.805,6,1,2
9231,2,30,2,0,6,1,0.69,6,1,1
9231,2,31,2,0,6,3,1.331,6,1,2
9231,2,32,2,2,9,4,4.319,3,2,2
9231,2,33,2,0,7,1,3.56,5,1,1
9231,2,34,2,2,9,4,1.126,3,2,2
9231,2,35,2,4,9,2,4.196,3,3,1
9231,2,36,2,6,12,4,4.686,0,4,2
9231,2,37,2,2,7,3,3.121,5,2,2
9231,2,38,2,2,9,4,2.505,3,2,2
9231,2,39,2,0,6,3,0.607,6,1,2
9231,2,40,2,0,7,3,3.636,5,1,2
9231,2,41,2,0,6,1,0.965,6,1,1
9231,2,42,2,4,12,2,2.229,0,3,1
9231,2,43,2,0,7,1,2.889,5,1,1
9231,2,44,2,6,12,4,1.431,0,4,2
9231,2,45,2,0,9,4,2.822,3,1,2
9231,2,46,2,2,7,1,1.961,5,2,1
9231,2,47,2,2,9,2,1,3,2,1
9231,2,48,2,2,9,2,4.158,3,2,1
9231,2,49,2,6,12,4,3.502,0,4,2
9231,2,50,2,0,6,1,0.805,6,1,1
9231,2,51,2,0,6,1,1.713,6,1,1
9231,2,52,2,2,9,2,2.472,3,2,1
9231,2,53,2,2,7,1,2.929,5,2,1
9231,2,54,2,0,6,3,1.38,6,1,2
9231,2,55,2,4,12,2,2.864,0,3,1
9231,2,56,2,0,6,1,1.522,6,1,1
9231,2,57,2,4,12,4,2.359,0,3,2
9231,2,58,2,2,9,4,2.222,3,2,2
9231,2,59,2,2,7,1,4.755,5,2,1
9231,2,61,2,0,12,4,3.736,0,1,2
9231,2,62,2,0,6,3,0.633,6,1,2
9231,2,63,2,0,6,1,0.624,6,1,1
9231,2,64,2,2,9,2,1.348,3,2,1
9231,2,65,2,2,7,3,1.087,5,2,2
9231,2,66,2,2,9,4,1.108,3,2,2
9231,2,67,2,4,9,2,3.735,3,3,1
9231,2,68,2,0,6,3,0.731,6,1,2
9231,2,69,2,6,12,2,1.675,0,4,1
9231,2,70,2,2,7,1,1.328,5,2,1
9231,2,71,2,0,7,1,3.923,5,1,1
9231,2,72,2,0,7,3,4.422,5,1,2
9181,2,1,1,2,9,2,4.33,3,2,1
9181,2,2,1,2,7,3,5.327,5,2,2
9181,2,3,1,0,6,1,1.971,6,1,1
9181,2,4,1,0,12,2,1.87,0,1,1
9181,2,5,1,0,7,1,2.721,5,1,1
9181,2,6,1,0,6,1,3.298,6,1,1
9181,2,7,1,2,6,3,2.805,6,2,2
9181,2,8,1,0,12,2,1.947,0,1,1
9181,2,9,1,6,7,3,2.688,5,4,2
9181,2,10,1,6,9,4,2.46,3,4,2
9181,2,11,1,6,9,4,3.006,3,4,2
9181,2,12,1,0,9,2,1.615,3,1,1
9181,2,13,1,6,6,3,4.426,6,4,2
9181,2,14,1,6,12,4,1.994,0,4,2
9181,2,15,1,4,7,3,4.204,5,3,2
9181,2,16,1,4,7,3,3.302,5,3,2
9181,2,17,1,6,12,4,1.773,0,4,2
9181,2,18,1,0,7,1,2.601,5,1,1
9181,2,19,1,2,6,3,4.173,6,2,2
9181,2,20,1,2,12,2,4.702,0,2,1
9181,2,21,1,4,9,4,4.906,3,3,2
9181,2,22,1,0,12,2,3.411,0,1,1
9181,2,23,1,6,12,4,3.35,0,4,2
9181,2,25,1,2,12,2,2.305,0,2,1
9181,2,26,1,0,6,1,1.974,6,1,1
9181,2,27,1,6,12,4,2.112,0,4,2
9181,2,28,1,2,12,2,3.492,0,2,1
9181,2,29,1,2,6,3,2.977,6,2,2
9181,2,30,1,0,6,1,1.701,6,1,1
9181,2,31,1,2,6,3,2.47,6,2,2
9181,2,32,1,2,9,4,4.203,3,2,2
9181,2,33,1,0,7,1,2.084,5,1,1
9181,2,34,1,4,9,4,2.69,3,3,2
9181,2,35,1,0,9,2,5.558,3,1,1
9181,2,36,1,6,12,4,2.001,0,4,2
9181,2,37,1,2,7,3,3.837,5,2,2
9181,2,38,1,6,9,4,3.725,3,4,2
9181,2,39,1,2,6,3,2.627,6,2,2
9181,2,40,1,2,7,3,3.48,5,2,2
9181,2,41,1,0,6,1,1.529,6,1,1
9181,2,42,1,2,12,2,2.84,0,2,1
9181,2,43,1,0,7,1,2.469,5,1,1
9181,2,44,1,6,12,4,1.891,0,4,2
9181,2,45,1,4,9,4,3.273,3,3,2
9181,2,46,1,0,7,1,1.342,5,1,1
9181,2,47,1,0,9,2,4.172,3,1,1
9181,2,48,1,2,9,2,4.674,3,2,1
9181,2,49,1,6,12,4,1.754,0,4,2
9181,2,50,1,0,6,1,1.305,6,1,1
9181,2,51,1,0,6,1,1.172,6,1,1
9181,2,52,1,2,9,2,2.947,3,2,1
9181,2,53,1,0,7,1,1.325,5,1,1
9181,2,54,1,2,6,3,2.104,6,2,2
9181,2,55,1,2,12,2,3.348,0,2,1
9181,2,56,1,0,6,1,1.541,6,1,1
9181,2,57,1,6,12,4,1.41,0,4,2
9181,2,58,1,4,9,4,4.321,3,3,2
9181,2,59,1,0,7,1,2.95,5,1,1
9181,2,60,1,2,7,3,3.65,5,2,2
9181,2,61,1,6,12,4,0.988,0,4,2
9181,2,62,1,2,6,3,2.444,6,2,2
9181,2,63,1,2,6,1,1.356,6,2,1
9181,2,64,1,2,9,2,1.463,3,2,1
9181,2,65,1,2,7,3,3.459,5,2,2
9181,2,66,1,4,9,4,3.464,3,3,2
9181,2,67,1,2,9,2,2.379,3,2,1
9181,2,68,1,4,6,3,3.119,6,3,2
9181,2,69,1,2,12,2,2.327,0,2,1
9181,2,70,1,2,7,1,2.451,5,2,1
9181,2,71,1,2,7,1,1.806,5,2,1
9181,2,72,1,2,7,3,3.018,5,2,2
9181,2,1,2,2,6,3,2.294,6,2,2
9181,2,2,2,0,6,1,1.584,6,1,1
9181,2,3,2,2,9,2,1.865,3,2,1
9181,2,4,2,6,12,4,1.188,0,4,2
9181,2,5,2,0,7,1,1.707,5,1,1
9181,2,6,2,4,9,4,4.956,3,3,2
9181,2,7,2,2,12,2,3.563,0,2,1
9181,2,8,2,6,12,4,0.946,0,4,2
9181,2,9,2,2,7,3,2.355,5,2,2
9181,2,10,2,4,9,4,2.09,3,3,2
9181,2,11,2,6,12,4,1.202,0,4,2
9181,2,12,2,2,9,2,1.944,3,2,1
9181,2,13,2,0,7,1,2.469,5,1,1
9181,2,14,2,6,12,4,1.112,0,4,2
9181,2,15,2,2,12,2,5.315,0,2,1
9181,2,16,2,4,7,3,2.699,5,3,2
9181,2,17,2,0,6,1,2.385,6,1,1
9181,2,18,2,4,9,4,3.455,3,3,2
9181,2,19,2,0,6,1,1.359,6,1,1
9181,2,20,2,2,6,3,1.692,6,2,2
9181,2,21,2,2,12,2,2.716,0,2,1
9181,2,22,2,6,12,4,1.101,0,4,2
9181,2,23,2,0,7,1,2.706,5,1,1
9181,2,24,2,2,9,2,1.49,3,2,1
9181,2,25,2,6,9,4,2.628,3,4,2
9181,2,26,2,2,7,3,2.602,5,2,2
9181,2,27,2,0,7,1,2.834,5,1,1
9181,2,28,2,2,6,3,3.042,6,2,2
9181,2,29,2,4,9,4,2.489,3,3,2
9181,2,30,2,2,9,2,2.368,3,2,1
9181,2,31,2,2,12,2,3.661,0,2,1
9181,2,32,2,6,12,4,1.165,0,4,2
9181,2,33,2,4,9,4,2.352,3,3,2
9181,2,34,2,4,9,4,1.67,3,3,2
9181,2,35,2,0,7,1,1.707,5,1,1
9181,2,36,2,2,7,3,3.763,5,2,2
9181,2,37,2,4,9,2,4.197,3,3,1
9181,2,38,2,2,6,3,2.44,6,2,2
9181,2,39,2,2,9,2,2.332,3,2,1
9181,2,40,2,0,6,1,1.225,6,1,1
9181,2,41,2,0,7,1,1.604,5,1,1
9181,2,42,2,2,7,3,4.031,5,2,2
9181,2,43,2,0,6,1,1.661,6,1,1
9181,2,44,2,2,7,3,4.057,5,2,2
9181,2,45,2,6,12,4,1.155,0,4,2
9181,2,46,2,0,6,1,0.957,6,1,1
9181,2,47,2,2,6,3,1.852,6,2,2
9181,2,48,2,4,9,4,3.181,3,3,2
9181,2,49,2,4,12,2,3.233,0,3,1
9181,2,50,2,2,9,2,1.886,3,2,1
9181,2,51,2,0,6,1,0.921,6,1,1
9181,2,52,2,0,7,1,1.687,5,1,1
9181,2,53,2,0,6,1,1.45,6,1,1
9181,2,54,2,2,12,2,3.014,0,2,1
9181,2,55,2,6,12,4,0.913,0,4,2
9181,2,56,2,2,6,3,1.924,6,2,2
9181,2,57,2,2,7,3,2.027,5,2,2
9181,2,58,2,2,9,2,2.25,3,2,1
9181,2,59,2,0,6,1,1.108,6,1,1
9181,2,60,2,2,12,2,2.67,0,2,1
9181,2,61,2,2,7,3,1.274,5,2,2
9181,2,62,2,6,9,4,3.812,3,4,2
9181,2,63,2,2,7,1,1.511,5,2,1
9181,2,64,2,2,12,2,2.383,0,2,1
9181,2,65,2,2,6,3,1.469,6,2,2
9181,2,66,2,2,7,3,1.281,5,2,2
9181,2,67,2,2,9,2,1.686,3,2,1
9181,2,68,2,2,6,3,1.451,6,2,2
9181,2,69,2,2,12,2,1.778,0,2,1
9181,2,70,2,2,6,3,3.44,6,2,2
9181,2,71,2,6,12,4,1.279,0,4,2
9181,2,72,2,0,7,1,2.545,5,1,1
9221,2,1,1,2,9,2,2.843,3,2,1
9221,2,2,1,2,7,3,3.4,5,2,2
9221,2,3,1,0,6,1,2.021,6,1,1
9221,2,4,1,6,12,2,3.783,0,4,1
9221,2,5,1,0,7,1,3.443,5,1,1
9221,2,6,1,0,6,1,1.546,6,1,1
9221,2,7,1,0,6,3,2.391,6,1,2
9221,2,8,1,6,12,2,3.245,0,4,1
9221,2,9,1,2,7,3,2.617,5,2,2
9221,2,10,1,4,9,4,3.605,3,3,2
9221,2,11,1,4,9,4,2.422,3,3,2
9221,2,12,1,4,9,2,3.737,3,3,1
9221,2,13,1,0,6,3,1.547,6,1,2
9221,2,14,1,6,12,4,1.419,0,4,2
9221,2,15,1,2,7,3,1.902,5,2,2
9221,2,16,1,2,7,3,1.486,5,2,2
9221,2,17,1,6,12,4,1.998,0,4,2
9221,2,18,1,2,7,1,2.77,5,2,1
9221,2,19,1,0,6,3,1.133,6,1,2
9221,2,20,1,6,12,2,2.544,0,4,1
9221,2,21,1,4,9,4,2.331,3,3,2
9221,2,22,1,6,12,2,1.043,0,4,1
9221,2,23,1,6,12,4,0.822,0,4,2
9221,2,24,1,4,9,2,1.632,3,3,1
9221,2,25,1,6,12,2,1.065,0,4,1
9221,2,26,1,0,6,1,1.055,6,1,1
9221,2,27,1,6,12,4,2.457,0,4,2
9221,2,28,1,4,12,2,2.653,0,3,1
9221,2,29,1,6,6,3,1.457,6,4,2
9221,2,30,1,0,6,1,1.614,6,1,1
9221,2,31,1,0,6,3,1.144,6,1,2
9221,2,32,1,4,9,4,2.067,3,3,2
9221,2,33,1,2,7,1,1.388,5,2,1
9221,2,34,1,4,9,4,3.21,3,3,2
9221,2,35,1,2,9,2,2.744,3,2,1
9221,2,36,1,6,12,4,1.634,0,4,2
9221,2,37,1,2,7,3,3.413,5,2,2
9221,2,38,1,4,9,4,1.805,3,3,2
9221,2,39,1,0,6,3,1.5,6,1,2
9221,2,40,1,2,7,3,1.721,5,2,2
9221,2,41,1,0,6,1,0.971,6,1,1
9221,2,42,1,6,12,2,2.498,0,4,1
9221,2,43,1,0,7,1,2.557,5,1,1
9221,2,44,1,6,12,4,1.163,0,4,2
9221,2,45,1,4,9,4,2.226,3,3,2
9221,2,46,1,0,7,1,2.102,5,1,1
9221,2,47,1,2,9,2,1.948,3,2,1
9221,2,48,1,2,9,2,2.69,3,2,1
9221,2,49,1,6,12,4,1.243,0,4,2
9221,2,50,1,0,6,1,1.417,6,1,1
9221,2,51,1,0,6,1,0.981,6,1,1
9221,2,52,1,2,9,2,1.54,3,2,1
9221,2,53,1,0,7,1,1.878,5,1,1
9221,2,54,1,0,6,3,1.273,6,1,2
9221,2,55,1,4,12,2,3.564,0,3,1
9221,2,56,1,0,6,1,2.022,6,1,1
9221,2,57,1,6,12,4,1.38,0,4,2
9221,2,58,1,4,9,4,2.298,3,3,2
9221,2,59,1,2,7,1,1.512,5,2,1
9221,2,60,1,2,7,3,1.699,5,2,2
9221,2,61,1,6,12,4,1.205,0,4,2
9221,2,62,1,0,6,3,2.077,6,1,2
9221,2,63,1,0,6,1,2.333,6,1,1
9221,2,64,1,2,9,2,2.809,3,2,1
9221,2,65,1,2,7,3,2.539,5,2,2
9221,2,66,1,4,9,4,1.889,3,3,2
9221,2,67,1,2,9,2,2.755,3,2,1
9221,2,68,1,0,6,3,1.04,6,1,2
9221,2,69,1,4,12,2,3.151,0,3,1
9221,2,70,1,0,7,1,2.349,5,1,1
9221,2,71,1,0,7,1,1.296,5,1,1
9221,2,72,1,2,7,3,1.323,5,2,2
9221,2,1,2,0,6,3,1.29,6,1,2
9221,2,2,2,0,6,1,0.971,6,1,1
9221,2,3,2,2,9,2,2.252,3,2,1
9221,2,4,2,6,12,4,1.392,0,4,2
9221,2,5,2,0,7,1,2.735,5,1,1
9221,2,6,2,4,9,4,2.119,3,3,2
9221,2,7,2,6,12,2,3.55,0,4,1
9221,2,8,2,6,12,4,1.094,0,4,2
9221,2,9,2,2,7,3,1.943,5,2,2
9221,2,10,2,4,9,4,2.206,3,3,2
9221,2,11,2,6,12,4,0.878,0,4,2
9221,2,12,2,2,9,2,2.091,3,2,1
9221,2,13,2,0,7,1,1.784,5,1,1
9221,2,14,2,6,12,4,0.923,0,4,2
9221,2,15,2,6,12,2,1.895,0,4,1
9221,2,16,2,2,7,3,2.367,5,2,2
9221,2,17,2,0,6,1,1.565,6,1,1
9221,2,18,2,4,9,4,3.62,3,3,2
9221,2,19,2,0,6,1,1.787,6,1,1
9221,2,20,2,0,6,3,1.031,6,1,2
9221,2,21,2,4,12,2,2.08,0,3,1
9221,2,22,2,4,12,4,3.84,0,3,2
9221,2,23,2,0,7,1,2.293,5,1,1
9221,2,24,2,2,9,2,4.789,3,2,1
9221,2,25,2,2,9,4,2.743,3,2,2
9221,2,26,2,0,7,3,2.11,5,1,2
9221,2,27,2,0,7,1,1.333,5,1,1
9221,2,28,2,0,6,3,2.324,6,1,2
9221,2,29,2,2,9,4,2.652,3,2,2
9221,2,30,2,2,9,2,4.043,3,2,1
9221,2,31,2,0,12,2,3.752,0,1,1
9221,2,32,2,0,12,4,2.144,0,1,2
9221,2,33,2,2,9,4,3.059,3,2,2
9221,2,34,2,2,9,4,3.897,3,2,2
9221,2,35,2,0,7,1,1.319,5,1,1
9221,2,36,2,0,7,3,1.135,5,1,2
9221,2,37,2,2,9,2,2.993,3,2,1
9221,2,38,2,0,6,3,1.004,6,1,2
9221,2,39,2,2,9,2,3.168,3,2,1
9221,2,40,2,0,6,1,0.82,6,1,1
9221,2,41,2,2,7,1,4.486,5,2,1
9221,2,42,2,0,7,3,1.019,5,1,2
9221,2,43,2,0,6,1,0.785,6,1,1
9221,2,44,2,2,7,3,2.06,5,2,2
9221,2,45,2,4,12,4,5.407,0,3,2
9221,2,46,2,0,6,1,1.312,6,1,1
9221,2,47,2,0,6,3,0.735,6,1,2
9221,2,48,2,2,9,4,2.386,3,2,2
9221,2,50,2,0,9,2,2.593,3,1,1
9221,2,51,2,0,6,1,0.709,6,1,1
9221,2,52,2,0,7,1,1.058,5,1,1
9221,2,53,2,0,6,1,0.797,6,1,1
9221,2,54,2,4,12,2,1.681,0,3,1
9221,2,55,2,4,12,4,1.94,0,3,2
9221,2,56,2,0,6,3,0.816,6,1,2
9221,2,57,2,2,7,3,2.43,5,2,2
9221,2,58,2,2,9,2,3.054,3,2,1
9221,2,59,2,2,6,1,2.863,6,2,1
9221,2,60,2,0,12,2,1.281,0,1,1
9221,2,61,2,2,7,3,3.941,5,2,2
9221,2,62,2,2,9,4,1.847,3,2,2
9221,2,63,2,2,7,1,1.842,5,2,1
9221,2,64,2,0,12,2,1.138,0,1,1
9221,2,65,2,6,6,3,2.136,6,4,2
9221,2,66,2,4,7,3,3.292,5,3,2
9221,2,67,2,2,9,2,1.634,3,2,1
9221,2,68,2,6,6,3,3.423,6,4,2
9221,2,69,2,0,12,2,1.534,0,1,1
9221,2,70,2,2,6,3,2.643,6,2,2
9221,2,71,2,0,12,4,1.219,0,1,2
9221,2,72,2,2,7,1,3.516,5,2,1
9311,2,1,1,2,6,3,2.606,6,2,2
9311,2,2,1,2,6,1,3.743,6,2,1
9311,2,3,1,2,9,2,3.657,3,2,1
9311,2,4,1,4,12,4,4.156,0,3,2
9311,2,5,1,6,7,1,2.867,5,4,1
9311,2,7,1,6,12,2,1.763,0,4,1
9311,2,8,1,6,12,4,2.186,0,4,2
9311,2,9,1,4,7,3,2.827,5,3,2
9311,2,10,1,4,9,4,4.354,3,3,2
9311,2,11,1,6,12,4,1.961,0,4,2
9311,2,12,1,4,9,2,3.495,3,3,1
9311,2,13,1,4,7,1,5.173,5,3,1
9311,2,14,1,6,12,4,1.487,0,4,2
9311,2,15,1,0,12,2,2.915,0,1,1
9311,2,16,1,4,7,3,4.563,5,3,2
9311,2,17,1,2,6,1,3.369,6,2,1
9311,2,18,1,4,9,4,3.575,3,3,2
9311,2,19,1,2,6,1,5.047,6,2,1
9311,2,20,1,4,6,3,5.755,6,3,2
9311,2,21,1,4,12,2,4.205,0,3,1
9311,2,22,1,6,12,4,2.109,0,4,2
9311,2,24,1,4,9,2,2.209,3,3,1
9311,2,25,1,6,9,4,2.251,3,4,2
9311,2,26,1,4,7,3,2.89,5,3,2
9311,2,27,1,2,7,1,2.106,5,2,1
9311,2,28,1,4,6,3,3.049,6,3,2
9311,2,29,1,6,9,4,2.776,3,4,2
9311,2,30,1,4,9,2,2.216,3,3,1
9311,2,31,1,4,12,2,3.077,0,3,1
9311,2,32,1,6,12,4,2.245,0,4,2
9311,2,33,1,6,9,4,4.023,3,4,2
9311,2,34,1,6,9,4,2.838,3,4,2
9311,2,35,1,4,7,1,4.019,5,3,1
9311,2,36,1,4,7,3,1.643,5,3,2
9311,2,37,1,6,9,2,1.917,3,4,1
9311,2,38,1,2,6,3,4.272,6,2,2
9311,2,39,1,4,9,2,2.395,3,3,1
9311,2,40,1,4,6,1,2.849,6,3,1
9311,2,41,1,2,7,1,5.683,5,2,1
9311,2,42,1,4,7,3,3.296,5,3,2
9311,2,43,1,2,6,1,5.605,6,2,1
9311,2,44,1,4,7,3,1.897,5,3,2
9311,2,45,1,6,12,4,2.035,0,4,2
9311,2,47,1,4,6,3,1.451,6,3,2
9311,2,49,1,4,12,2,1.665,0,3,1
9311,2,50,1,4,9,2,3.277,3,3,1
9311,2,51,1,4,6,1,1.945,6,3,1
9311,2,52,1,2,7,1,4.19,5,2,1
9311,2,53,1,4,6,1,5.441,6,3,1
9311,2,54,1,4,12,2,4.366,0,3,1
9311,2,55,1,6,12,4,1.488,0,4,2
9311,2,56,1,6,6,3,4.02,6,4,2
9311,2,57,1,4,7,3,4.179,5,3,2
9311,2,58,1,4,9,2,5.538,3,3,1
9311,2,59,1,4,6,1,3.86,6,3,1
9311,2,60,1,6,12,2,2.413,0,4,1
9311,2,61,1,4,7,3,1.73,5,3,2
9311,2,62,1,6,9,4,1.668,3,4,2
9311,2,64,1,4,12,2,2.279,0,3,1
9311,2,65,1,2,6,3,3.524,6,2,2
9311,2,66,1,4,7,3,3.968,5,3,2
9311,2,67,1,4,9,2,4.95,3,3,1
9311,2,68,1,2,6,3,2.427,6,2,2
9311,2,69,1,4,12,2,2.61,0,3,1
9311,2,70,1,4,6,3,4.28,6,3,2
9311,2,71,1,4,12,4,3.231,0,3,2
9311,2,72,1,2,7,1,4.824,5,2,1
9311,2,1,2,4,9,2,2.672,3,3,1
9311,2,2,2,4,7,3,2.438,5,3,2
9311,2,3,2,2,6,1,2.497,6,2,1
9311,2,4,2,4,12,2,2.148,0,3,1
9311,2,5,2,4,7,1,3.055,5,3,1
9311,2,6,2,2,6,1,4.144,6,2,1
9311,2,7,2,2,6,3,2.107,6,2,2
9311,2,8,2,4,12,2,1.993,0,3,1
9311,2,9,2,4,7,3,5.15,5,3,2
9311,2,10,2,4,9,4,4.25,3,3,2
9311,2,11,2,4,9,4,2.812,3,3,2
9311,2,12,2,2,9,2,3.117,3,2,1
9311,2,13,2,4,6,3,5.048,6,3,2
9311,2,14,2,4,12,4,2.656,0,3,2
9311,2,15,2,4,7,3,5.314,5,3,2
9311,2,16,2,4,7,3,1.468,5,3,2
9311,2,17,2,4,12,4,2.163,0,3,2
9311,2,18,2,2,7,1,3.27,5,2,1
9311,2,19,2,2,6,3,3.539,6,2,2
9311,2,20,2,2,12,2,5.429,0,2,1
9311,2,21,2,4,9,4,2.88,3,3,2
9311,2,22,2,4,12,2,2.033,0,3,1
9311,2,23,2,4,12,4,3.3,0,3,2
9311,2,24,2,2,9,2,1.957,3,2,1
9311,2,25,2,4,12,2,2.335,0,3,1
9311,2,26,2,2,6,1,2.757,6,2,1
9311,2,27,2,4,12,4,3.118,0,3,2
9311,2,28,2,0,12,2,3.579,0,1,1
9311,2,29,2,2,6,3,4.318,6,2,2
9311,2,30,2,2,6,1,2.612,6,2,1
9311,2,31,2,4,6,3,3.213,6,3,2
9311,2,32,2,4,9,4,3.977,3,3,2
9311,2,33,2,2,7,1,2.738,5,2,1
9311,2,34,2,4,9,4,4.464,3,3,2
9311,2,35,2,2,9,2,5.125,3,2,1
9311,2,36,2,4,12,4,1.944,0,3,2
9311,2,37,2,4,7,3,2.267,5,3,2
9311,2,38,2,4,9,4,1.97,3,3,2
9311,2,39,2,2,6,3,3.905,6,2,2
9311,2,40,2,2,7,3,1.566,5,2,2
9311,2,41,2,2,6,1,1.751,6,2,1
9311,2,42,2,4,12,2,3.166,0,3,1
9311,2,43,2,4,7,1,3.395,5,3,1
9311,2,44,2,4,12,4,3.873,0,3,2
9311,2,45,2,2,9,4,4.575,3,2,2
9311,2,46,2,2,7,1,1.62,5,2,1
9311,2,47,2,2,9,2,3.498,3,2,1
9311,2,48,2,4,9,2,5.288,3,3,1
9311,2,49,2,4,12,4,4.976,0,3,2
9311,2,50,2,2,6,1,5.055,6,2,1
9311,2,51,2,2,6,1,2.29,6,2,1
9311,2,52,2,4,9,2,2.585,3,3,1
9311,2,53,2,2,7,1,3.099,5,2,1
9311,2,54,2,4,6,3,1.99,6,3,2
9311,2,55,2,4,12,2,3.402,0,3,1
9311,2,56,2,2,6,1,3.507,6,2,1
9311,2,57,2,4,12,4,3.72,0,3,2
9311,2,58,2,2,9,4,2.023,3,2,2
9311,2,59,2,4,7,1,2.789,5,3,1
9311,2,60,2,4,7,3,3.768,5,3,2
9311,2,61,2,2,12,4,3.826,0,2,2
9311,2,62,2,4,6,3,2.602,6,3,2
9311,2,63,2,2,6,1,4.61,6,2,1
9311,2,64,2,2,9,2,3.437,3,2,1
9311,2,65,2,2,7,3,3.369,5,2,2
9311,2,66,2,4,9,4,5.462,3,3,2
9311,2,67,2,2,9,2,1.937,3,2,1
9311,2,68,2,4,6,3,2.181,6,3,2
9311,2,69,2,0,12,2,3.461,0,1,1
9311,2,70,2,2,7,1,1.977,5,2,1
9311,2,71,2,2,7,1,2.293,5,2,1
9311,2,72,2,4,7,3,1.727,5,3,2
9261,2,1,1,0,9,2,4.252,3,1,1
9261,2,2,1,2,7,3,2.537,5,2,2
9261,2,3,1,0,6,1,2.494,6,1,1
9261,2,4,1,0,12,2,2.864,0,1,1
9261,2,5,1,0,7,1,3.404,5,1,1
9261,2,6,1,2,6,1,2.507,6,2,1
9261,2,7,1,4,6,3,2.063,6,3,2
9261,2,8,1,0,12,2,1.238,0,1,1
9261,2,9,1,4,7,3,1.978,5,3,2
9261,2,10,1,2,9,4,3.606,3,2,2
9261,2,11,1,2,9,4,2.007,3,2,2
9261,2,12,1,0,9,2,2.442,3,1,1
9261,2,13,1,4,6,3,2.148,6,3,2
9261,2,14,1,6,12,4,3.044,0,4,2
9261,2,15,1,4,7,3,1.911,5,3,2
9261,2,16,1,2,7,3,2.423,5,2,2
9261,2,17,1,6,12,4,1.336,0,4,2
9261,2,18,1,0,7,1,1.435,5,1,1
9261,2,19,1,4,6,3,1.759,6,3,2
9261,2,20,1,0,12,2,1.233,0,1,1
9261,2,21,1,4,9,4,2.636,3,3,2
9261,2,22,1,0,12,2,0.94,0,1,1
9261,2,23,1,6,12,4,1.352,0,4,2
9261,2,24,1,0,9,2,1.121,3,1,1
9261,2,25,1,0,12,2,0.882,0,1,1
9261,2,26,1,0,6,1,0.904,6,1,1
9261,2,27,1,6,12,4,1.618,0,4,2
9261,2,28,1,4,12,2,1.598,0,3,1
9261,2,29,1,4,6,3,2.034,6,3,2
9261,2,30,1,0,6,1,1.191,6,1,1
9261,2,31,1,4,6,3,1.425,6,3,2
9261,2,32,1,2,9,4,3.189,3,2,2
9261,2,33,1,0,7,1,1.069,5,1,1
9261,2,34,1,2,9,4,2.147,3,2,2
9261,2,35,1,0,9,2,1.057,3,1,1
9261,2,36,1,6,12,4,1.427,0,4,2
9261,2,37,1,4,7,3,3.03,5,3,2
9261,2,38,1,6,9,4,3.966,3,4,2
9261,2,39,1,2,6,3,2.397,6,2,2
9261,2,40,1,2,7,3,2.034,5,2,2
9261,2,41,1,0,6,1,1.219,6,1,1
9261,2,42,1,0,12,2,1.122,0,1,1
9261,2,43,1,0,7,1,1.102,5,1,1
9261,2,44,1,4,12,4,1.844,0,3,2
9261,2,45,1,4,9,4,3.715,3,3,2
9261,2,46,1,0,7,1,1.023,5,1,1
9261,2,47,1,0,9,2,0.878,3,1,1
9261,2,48,1,0,9,2,0.739,3,1,1
9261,2,49,1,4,12,4,1.716,0,3,2
9261,2,50,1,0,6,1,1.746,6,1,1
9261,2,51,1,0,6,1,1.046,6,1,1
9261,2,52,1,0,9,2,1.093,3,1,1
9261,2,53,1,0,7,1,0.991,5,1,1
9261,2,54,1,2,6,3,1.802,6,2,2
9261,2,55,1,0,12,2,1.309,0,1,1
9261,2,56,1,0,6,1,0.864,6,1,1
9261,2,57,1,4,12,4,1.34,0,3,2
9261,2,58,1,4,9,4,2.075,3,3,2
9261,2,59,1,0,7,1,0.889,5,1,1
9261,2,60,1,2,7,3,1.596,5,2,2
9261,2,61,1,6,12,4,1.726,0,4,2
9261,2,62,1,4,6,3,1.798,6,3,2
9261,2,63,1,0,6,1,1.133,6,1,1
9261,2,64,1,0,9,2,1.018,3,1,1
9261,2,65,1,4,7,3,1.3,5,3,2
9261,2,66,1,4,9,4,1.298,3,3,2
9261,2,67,1,0,9,2,0.701,3,1,1
9261,2,68,1,4,6,3,1.433,6,3,2
9261,2,69,1,0,12,2,0.952,0,1,1
9261,2,70,1,0,7,1,0.83,5,1,1
9261,2,71,1,0,7,1,0.808,5,1,1
9261,2,72,1,4,7,3,2.116,5,3,2
9261,2,1,2,4,6,3,1.465,6,3,2
9261,2,2,2,0,6,1,1.098,6,1,1
9261,2,3,2,0,9,2,0.899,3,1,1
9261,2,4,2,6,12,4,1.479,0,4,2
9261,2,5,2,0,7,1,1.158,5,1,1
9261,2,6,2,2,9,4,1.494,3,2,2
9261,2,7,2,0,12,2,1.317,0,1,1
9261,2,8,2,6,12,4,1.421,0,4,2
9261,2,9,2,4,7,3,2.262,5,3,2
9261,2,10,2,2,9,4,1.454,3,2,2
9261,2,11,2,6,12,4,1.749,0,4,2
9261,2,12,2,0,9,2,1.21,3,1,1
9261,2,13,2,0,7,1,0.783,5,1,1
9261,2,14,2,6,12,4,1.146,0,4,2
9261,2,15,2,0,12,2,1.03,0,1,1
9261,2,16,2,2,7,3,1.422,5,2,2
9261,2,17,2,0,6,1,1.46,6,1,1
9261,2,18,2,2,9,4,1.451,3,2,2
9261,2,19,2,0,6,1,0.906,6,1,1
9261,2,20,2,2,6,3,1.638,6,2,2
9261,2,21,2,0,12,2,1.111,0,1,1
9261,2,22,2,6,12,4,1.519,0,4,2
9261,2,23,2,0,7,1,1.42,5,1,1
9261,2,24,2,0,9,2,0.781,3,1,1
9261,2,25,2,2,9,4,1.959,3,2,2
9261,2,26,2,2,7,3,2.165,5,2,2
9261,2,27,2,0,7,1,1.731,5,1,1
9261,2,28,2,0,6,3,1.74,6,1,2
9261,2,29,2,2,9,4,2.259,3,2,2
9261,2,30,2,0,9,2,1.427,3,1,1
9261,2,31,2,0,12,2,1.663,0,1,1
9261,2,32,2,4,12,4,2.679,0,3,2
9261,2,33,2,2,9,4,1.426,3,2,2
9261,2,34,2,2,9,4,1.369,3,2,2
9261,2,35,2,0,7,1,1.038,5,1,1
9261,2,36,2,2,7,3,2.262,5,2,2
9261,2,37,2,0,9,2,0.976,3,1,1
9261,2,38,2,0,6,3,1.531,6,1,2
9261,2,39,2,0,9,2,1.335,3,1,1
9261,2,40,2,0,6,1,1.539,6,1,1
9261,2,41,2,0,7,1,0.974,5,1,1
9261,2,42,2,2,7,3,1.378,5,2,2
9261,2,43,2,0,6,1,0.928,6,1,1
9261,2,44,2,2,7,3,1.307,5,2,2
9261,2,45,2,6,12,4,1.542,0,4,2
9261,2,46,2,0,6,1,1.223,6,1,1
9261,2,47,2,2,6,3,1.655,6,2,2
9261,2,48,2,0,9,4,2.104,3,1,2
9261,2,49,2,0,12,2,1.653,0,1,1
9261,2,50,2,0,9,2,1.065,3,1,1
9261,2,51,2,0,6,1,0.948,6,1,1
9261,2,52,2,0,7,1,1.009,5,1,1
9261,2,53,2,0,6,1,1.213,6,1,1
9261,2,54,2,0,12,2,1.337,0,1,1
9261,2,55,2,6,12,4,1.107,0,4,2
9261,2,56,2,0,6,3,1.871,6,1,2
9261,2,57,2,2,7,3,1.101,5,2,2
9261,2,58,2,0,9,2,1.285,3,1,1
9261,2,59,2,0,6,1,0.622,6,1,1
9261,2,60,2,0,12,2,1.088,0,1,1
9261,2,61,2,2,7,3,1.516,5,2,2
9261,2,62,2,2,9,4,1.622,3,2,2
9261,2,63,2,0,7,1,1.185,5,1,1
9261,2,64,2,0,12,2,0.745,0,1,1
9261,2,65,2,0,6,3,1.399,6,1,2
9261,2,66,2,2,7,3,1.203,5,2,2
9261,2,67,2,0,9,2,0.865,3,1,1
9261,2,68,2,0,6,3,1.046,6,1,2
9261,2,69,2,0,12,2,0.877,0,1,1
9261,2,70,2,0,6,3,1.05,6,1,2
9261,2,71,2,6,12,4,1.498,0,4,2
9261,2,72,2,0,7,1,0.835,5,1,1
9301,2,1,1,2,9,2,2.786,3,2,1
9301,2,2,1,0,7,3,2.632,5,1,2
9301,2,3,1,0,6,1,2.011,6,1,1
9301,2,4,1,4,12,2,3.613,0,3,1
9301,2,5,1,0,7,1,1.905,5,1,1
9301,2,6,1,0,6,1,1.761,6,1,1
9301,2,7,1,0,6,3,1.789,6,1,2
9301,2,8,1,4,12,2,1.779,0,3,1
9301,2,9,1,0,7,3,2.655,5,1,2
9301,2,10,1,2,9,4,2.155,3,2,2
9301,2,11,1,2,9,4,2.246,3,2,2
9301,2,12,1,2,9,2,2.479,3,2,1
9301,2,13,1,0,6,3,1.346,6,1,2
9301,2,14,1,4,12,4,2.13,0,3,2
9301,2,15,1,0,7,3,1.66,5,1,2
9301,2,16,1,0,7,3,1.333,5,1,2
9301,2,17,1,6,12,4,2.557,0,4,2
9301,2,18,1,0,7,1,2.128,5,1,1
9301,2,19,1,0,6,3,2.396,6,1,2
9301,2,20,1,4,12,2,3.462,0,3,1
9301,2,21,1,4,9,4,3.658,3,3,2
9301,2,22,1,4,12,2,3.834,0,3,1
9301,2,23,1,6,12,4,2.534,0,4,2
9301,2,24,1,2,9,2,3.022,3,2,1
9301,2,25,1,4,12,2,2.856,0,3,1
9301,2,26,1,0,6,1,1.119,6,1,1
9301,2,27,1,6,12,4,1.664,0,4,2
9301,2,28,1,4,12,2,1.724,0,3,1
9301,2,29,1,2,6,3,3.265,6,2,2
9301,2,30,1,0,6,1,1.181,6,1,1
9301,2,31,1,0,6,3,1.99,6,1,2
9301,2,32,1,4,9,4,2.587,3,3,2
9301,2,33,1,0,7,1,1.532,5,1,1
9301,2,34,1,4,9,4,2.178,3,3,2
9301,2,35,1,2,9,2,2.814,3,2,1
9301,2,36,1,6,12,4,1.929,0,4,2
9301,2,37,1,2,7,3,1.964,5,2,2
9301,2,38,1,4,9,4,1.668,3,3,2
9301,2,39,1,0,6,3,2.067,6,1,2
9301,2,40,1,2,7,3,1.912,5,2,2
9301,2,41,1,0,6,1,1.241,6,1,1
9301,2,42,1,4,12,2,2.96,0,3,1
9301,2,43,1,0,7,1,2.165,5,1,1
9301,2,44,1,6,12,4,1.291,0,4,2
9301,2,45,1,4,9,4,2.153,3,3,2
9301,2,46,1,0,7,1,1.397,5,1,1
9301,2,47,1,2,9,2,1.867,3,2,1
9301,2,48,1,2,9,2,2.226,3,2,1
9301,2,49,1,6,12,4,1.242,0,4,2
9301,2,50,1,0,6,1,1.497,6,1,1
9301,2,51,1,0,6,1,1.443,6,1,1
9301,2,52,1,2,9,2,1.635,3,2,1
9301,2,53,1,0,7,1,2.349,5,1,1
9301,2,54,1,0,6,3,2.216,6,1,2
9301,2,55,1,4,12,2,2.203,0,3,1
9301,2,56,1,0,6,1,1.517,6,1,1
9301,2,57,1,6,12,4,1.794,0,4,2
9301,2,58,1,4,9,4,2.048,3,3,2
9301,2,59,1,0,7,1,2.198,5,1,1
9301,2,60,1,2,7,3,1.986,5,2,2
9301,2,61,1,6,12,4,2.059,0,4,2
9301,2,62,1,0,6,3,1.508,6,1,2
9301,2,63,1,0,6,1,1.492,6,1,1
9301,2,64,1,2,9,2,2.079,3,2,1
9301,2,65,1,0,7,3,3.411,5,1,2
9301,2,66,1,4,9,4,1.951,3,3,2
9301,2,67,1,2,9,2,2.131,3,2,1
9301,2,68,1,0,6,3,1.471,6,1,2
9301,2,69,1,6,12,2,1.543,0,4,1
9301,2,70,1,0,7,1,1.803,5,1,1
9301,2,71,1,0,7,1,1.574,5,1,1
9301,2,72,1,2,7,3,1.153,5,2,2
9301,2,1,2,0,6,3,2.324,6,1,2
9301,2,2,2,0,6,1,1.766,6,1,1
9301,2,3,2,2,9,2,1.575,3,2,1
9301,2,4,2,6,12,4,1.562,0,4,2
9301,2,5,2,0,7,1,1.689,5,1,1
9301,2,6,2,4,9,4,1.609,3,3,2
9301,2,7,2,4,12,2,2.009,0,3,1
9301,2,8,2,6,12,4,1.32,0,4,2
9301,2,9,2,2,7,3,2.129,5,2,2
9301,2,10,2,4,9,4,2.145,3,3,2
9301,2,11,2,6,12,4,1.144,0,4,2
9301,2,12,2,2,9,2,2.269,3,2,1
9301,2,13,2,0,7,1,2.179,5,1,1
9301,2,14,2,6,12,4,1.557,0,4,2
9301,2,15,2,4,12,2,1.61,0,3,1
9301,2,16,2,2,7,3,1.362,5,2,2
9301,2,17,2,0,6,1,1.431,6,1,1
9301,2,18,2,4,9,4,1.926,3,3,2
9301,2,19,2,0,6,1,1.349,6,1,1
9301,2,20,2,0,6,3,1.906,6,1,2
9301,2,21,2,4,12,2,2.467,0,3,1
9301,2,22,2,6,12,4,1.667,0,4,2
9301,2,23,2,0,7,1,3.416,5,1,1
9301,2,24,2,2,9,2,2.352,3,2,1
9301,2,25,2,4,9,4,1.906,3,3,2
9301,2,26,2,2,7,3,2.648,5,2,2
9301,2,27,2,0,7,1,1.336,5,1,1
9301,2,28,2,0,6,3,1.239,6,1,2
9301,2,29,2,4,9,4,1.87,3,3,2
9301,2,30,2,2,9,2,1.526,3,2,1
9301,2,31,2,4,12,2,1.708,0,3,1
9301,2,32,2,6,12,4,1.404,0,4,2
9301,2,33,2,4,9,4,2.27,3,3,2
9301,2,34,2,4,9,4,1.637,3,3,2
9301,2,35,2,0,7,1,1.922,5,1,1
9301,2,36,2,2,7,3,1.537,5,2,2
9301,2,37,2,2,9,2,2.268,3,2,1
9301,2,38,2,0,6,3,1.559,6,1,2
9301,2,39,2,2,9,2,2.162,3,2,1
9301,2,40,2,0,6,1,1.215,6,1,1
9301,2,41,2,0,7,1,1.329,5,1,1
9301,2,42,2,2,7,3,1.31,5,2,2
9301,2,43,2,0,6,1,1.3,6,1,1
9301,2,44,2,2,7,3,2.023,5,2,2
9301,2,45,2,6,12,4,1.642,0,4,2
9301,2,46,2,0,6,1,1.684,6,1,1
9301,2,47,2,0,6,3,1.418,6,1,2
9301,2,48,2,4,9,4,2.548,3,3,2
9301,2,49,2,4,12,2,2.888,0,3,1
9301,2,50,2,2,9,2,3.372,3,2,1
9301,2,51,2,0,6,1,1.432,6,1,1
9301,2,52,2,0,7,1,1.757,5,1,1
9301,2,53,2,0,6,1,1.144,6,1,1
9301,2,54,2,4,12,2,2.732,0,3,1
9301,2,55,2,6,12,4,1.102,0,4,2
9301,2,56,2,0,6,3,1.507,6,1,2
9301,2,57,2,2,7,3,2.434,5,2,2
9301,2,58,2,2,9,2,1.848,3,2,1
9301,2,59,2,0,6,1,1.01,6,1,1
9301,2,60,2,4,12,2,2.188,0,3,1
9301,2,61,2,0,7,3,3.504,5,1,2
9301,2,62,2,4,9,4,1.874,3,3,2
9301,2,63,2,0,7,1,1.381,5,1,1
9301,2,64,2,4,12,2,3.221,0,3,1
9301,2,65,2,0,6,3,1.251,6,1,2
9301,2,66,2,0,7,3,1.582,5,1,2
9301,2,67,2,2,9,2,1.66,3,2,1
9301,2,68,2,0,6,3,1.17,6,1,2
9301,2,69,2,4,12,2,2.193,0,3,1
9301,2,70,2,0,6,3,1.093,6,1,2
9301,2,71,2,6,12,4,1.494,0,4,2
9301,2,72,2,0,7,1,1.071,5,1,1
9071,2,1,1,0,6,3,2.233,6,1,2
9071,2,2,1,0,6,1,2.324,6,1,1
9071,2,3,1,4,9,2,1.756,3,3,1
9071,2,4,1,6,12,4,1.847,0,4,2
9071,2,5,1,2,7,1,1.286,5,2,1
9071,2,6,1,2,9,4,1.183,3,2,2
9071,2,7,1,6,12,2,2.246,0,4,1
9071,2,8,1,6,12,4,2.261,0,4,2
9071,2,9,1,0,7,3,2.246,5,1,2
9071,2,10,1,2,9,4,2.158,3,2,2
9071,2,11,1,4,12,4,2.021,0,3,2
9071,2,12,1,2,9,2,1.474,3,2,1
9071,2,13,1,2,7,1,1.384,5,2,1
9071,2,14,1,4,12,4,1.659,0,3,2
9071,2,15,1,4,12,2,1.023,0,3,1
9071,2,16,1,2,7,3,1.199,5,2,2
9071,2,17,1,0,6,1,0.956,6,1,1
9071,2,18,1,2,9,4,0.987,3,2,2
9071,2,19,1,0,6,1,0.746,6,1,1
9071,2,20,1,0,6,3,0.791,6,1,2
9071,2,21,1,4,12,2,1.456,0,3,1
9071,2,22,1,4,12,4,0.872,0,3,2
9071,2,23,1,0,7,1,1.046,5,1,1
9071,2,24,1,2,9,2,0.925,3,2,1
9071,2,25,1,2,9,4,0.846,3,2,2
9071,2,26,1,0,7,3,0.893,5,1,2
9071,2,27,1,0,7,1,1.157,5,1,1
9071,2,28,1,0,6,3,0.756,6,1,2
9071,2,29,1,2,9,4,1.804,3,2,2
9071,2,30,1,2,9,2,0.763,3,2,1
9071,2,31,1,6,12,2,2.169,0,4,1
9071,2,32,1,6,12,4,1.864,0,4,2
9071,2,33,1,2,9,4,1.556,3,2,2
9071,2,34,1,2,9,4,1.05,3,2,2
9071,2,35,1,0,7,1,2.007,5,1,1
9071,2,36,1,2,7,3,0.742,5,2,2
9071,2,37,1,2,9,2,2.601,3,2,1
9071,2,38,1,0,6,3,0.828,6,1,2
9071,2,39,1,2,9,2,1.383,3,2,1
9071,2,40,1,0,6,1,0.796,6,1,1
9071,2,41,1,0,7,1,1.567,5,1,1
9071,2,42,1,2,7,3,1.811,5,2,2
9071,2,43,1,0,6,1,0.993,6,1,1
9071,2,44,1,2,7,3,1.324,5,2,2
9071,2,45,1,6,12,4,1.399,0,4,2
9071,2,46,1,0,6,1,0.993,6,1,1
9071,2,47,1,2,6,3,1.703,6,2,2
9071,2,48,1,4,9,4,1.905,3,3,2
9071,2,49,1,4,12,2,1.749,0,3,1
9071,2,50,1,2,9,2,1.681,3,2,1
9071,2,51,1,0,6,1,1.068,6,1,1
9071,2,52,1,0,7,1,1.194,5,1,1
9071,2,53,1,0,6,1,0.845,6,1,1
9071,2,54,1,4,12,2,1.809,0,3,1
9071,2,55,1,6,12,4,2.244,0,4,2
9071,2,56,1,0,6,3,1.312,6,1,2
9071,2,57,1,2,7,3,1.59,5,2,2
9071,2,58,1,2,9,2,2.525,3,2,1
9071,2,59,1,0,6,1,0.879,6,1,1
9071,2,60,1,6,12,2,4.985,0,4,1
9071,2,61,1,0,7,3,1.509,5,1,2
9071,2,62,1,2,9,4,1.767,3,2,2
9071,2,63,1,0,7,1,0.906,5,1,1
9071,2,64,1,4,12,2,1.323,0,3,1
9071,2,65,1,0,6,3,1.215,6,1,2
9071,2,66,1,0,7,3,0.972,5,1,2
9071,2,67,1,2,9,2,2.673,3,2,1
9071,2,68,1,0,6,3,1.486,6,1,2
9071,2,69,1,4,12,2,1.222,0,3,1
9071,2,70,1,0,6,3,1.075,6,1,2
9071,2,71,1,6,12,4,1.011,0,4,2
9071,2,72,1,0,7,1,1.275,5,1,1
9071,2,1,2,2,9,2,2.463,3,2,1
9071,2,2,2,2,7,3,1.877,5,2,2
9071,2,3,2,0,6,1,0.857,6,1,1
9071,2,4,2,4,12,2,1.563,0,3,1
9071,2,5,2,0,7,1,1.695,5,1,1
9071,2,6,2,0,6,1,0.728,6,1,1
9071,2,7,2,0,6,3,1.451,6,1,2
9071,2,8,2,4,12,2,3.401,0,3,1
9071,2,9,2,2,7,3,1.317,5,2,2
9071,2,10,2,4,9,4,2.234,3,3,2
9071,2,11,2,4,9,4,0.851,3,3,2
9071,2,12,2,2,9,2,1.061,3,2,1
9071,2,13,2,0,6,3,1.392,6,1,2
9071,2,14,2,6,12,4,1.376,0,4,2
9071,2,15,2,2,7,3,1.21,5,2,2
9071,2,16,2,2,7,3,2.275,5,2,2
9071,2,17,2,6,12,4,1.171,0,4,2
9071,2,18,2,0,7,1,0.935,5,1,1
9071,2,19,2,0,6,3,2.203,6,1,2
9071,2,20,2,4,12,2,1.94,0,3,1
9071,2,21,2,4,9,4,3.239,3,3,2
9071,2,22,2,4,12,2,1.311,0,3,1
9071,2,23,2,6,12,4,1.035,0,4,2
9071,2,24,2,2,9,2,2.332,3,2,1
9071,2,25,2,4,12,2,1.279,0,3,1
9071,2,26,2,0,6,1,0.868,6,1,1
9071,2,27,2,6,12,4,1.197,0,4,2
9071,2,28,2,4,12,2,0.913,0,3,1
9071,2,29,2,0,6,3,1.39,6,1,2
9071,2,30,2,0,6,1,0.931,6,1,1
9071,2,31,2,0,6,3,0.757,6,1,2
9071,2,32,2,4,9,4,1.416,3,3,2
9071,2,33,2,0,7,1,1.857,5,1,1
9071,2,34,2,4,9,4,1.047,3,3,2
9071,2,35,2,2,9,2,1.252,3,2,1
9071,2,36,2,6,12,4,1.007,0,4,2
9071,2,37,2,0,7,3,1.723,5,1,2
9071,2,38,2,4,9,4,1.37,3,3,2
9071,2,39,2,0,6,3,0.848,6,1,2
9071,2,40,2,2,7,3,1.734,5,2,2
9071,2,41,2,0,6,1,1.399,6,1,1
9071,2,42,2,4,12,2,1.262,0,3,1
9071,2,43,2,0,7,1,0.962,5,1,1
9071,2,44,2,6,12,4,1.016,0,4,2
9071,2,45,2,4,9,4,1.575,3,3,2
9071,2,46,2,0,7,1,1.17,5,1,1
9071,2,47,2,2,9,2,1.666,3,2,1
9071,2,48,2,2,9,2,1.687,3,2,1
9071,2,49,2,6,12,4,1.343,0,4,2
9071,2,50,2,0,6,1,0.958,6,1,1
9071,2,51,2,0,6,1,1.178,6,1,1
9071,2,52,2,2,9,2,1.497,3,2,1
9071,2,53,2,0,7,1,0.994,5,1,1
9071,2,54,2,0,6,3,1.213,6,1,2
9071,2,55,2,4,12,2,1.282,0,3,1
9071,2,56,2,0,6,1,0.803,6,1,1
9071,2,57,2,6,12,4,1.248,0,4,2
9071,2,58,2,4,9,4,1.615,3,3,2
9071,2,59,2,2,7,1,0.957,5,2,1
9071,2,60,2,2,7,3,1.751,5,2,2
9071,2,61,2,6,12,4,0.977,0,4,2
9071,2,62,2,0,6,3,0.857,6,1,2
9071,2,63,2,0,6,1,0.753,6,1,1
9071,2,64,2,2,9,2,1.869,3,2,1
9071,2,65,2,2,7,3,1.376,5,2,2
9071,2,66,2,4,9,4,2.27,3,3,2
9071,2,67,2,2,9,2,1.017,3,2,1
9071,2,68,2,0,6,3,1.484,6,1,2
9071,2,69,2,4,12,2,1.268,0,3,1
9071,2,70,2,0,7,1,1.497,5,1,1
9071,2,71,2,0,7,1,0.98,5,1,1
9071,2,72,2,2,7,3,0.943,5,2,2
9271,2,1,1,2,6,3,4.678,6,2,2
9271,2,2,1,0,6,1,1.929,6,1,1
9271,2,3,1,2,9,2,4.626,3,2,1
9271,2,4,1,6,12,4,3.308,0,4,2
9271,2,5,1,0,7,1,2.859,5,1,1
9271,2,6,1,4,9,4,3.236,3,3,2
9271,2,7,1,2,12,2,5.275,0,2,1
9271,2,9,1,2,7,3,1.691,5,2,2
9271,2,10,1,4,9,4,2.547,3,3,2
9271,2,11,1,4,12,4,3.819,0,3,2
9271,2,12,1,2,9,2,4.112,3,2,1
9271,2,13,1,0,7,1,1.957,5,1,1
9271,2,14,1,4,12,4,3.488,0,3,2
9271,2,16,1,0,7,3,2.86,5,1,2
9271,2,18,1,2,9,4,2.912,3,2,2
9271,2,19,1,0,6,1,3.319,6,1,1
9271,2,20,1,2,6,3,3.253,6,2,2
9271,2,21,1,0,12,2,2.748,0,1,1
9271,2,22,1,2,12,4,3.477,0,2,2
9271,2,23,1,0,7,1,3.459,5,1,1
9271,2,24,1,0,9,2,3.234,3,1,1
9271,2,25,1,2,9,4,4.805,3,2,2
9271,2,26,1,2,7,3,3.586,5,2,2
9271,2,27,1,0,7,1,1.73,5,1,1
9271,2,28,1,2,6,3,3.834,6,2,2
9271,2,29,1,4,9,4,4.705,3,3,2
9271,2,30,1,0,9,2,3.528,3,1,1
9271,2,31,1,0,12,2,4.501,0,1,1
9271,2,32,1,0,12,4,4.093,0,1,2
9271,2,33,1,2,9,4,3.544,3,2,2
9271,2,34,1,4,9,4,3.686,3,3,2
9271,2,35,1,0,7,1,2.532,5,1,1
9271,2,36,1,0,7,3,4.011,5,1,2
9271,2,37,1,0,9,2,1.957,3,1,1
9271,2,38,1,2,6,3,5.377,6,2,2
9271,2,39,1,0,9,2,1.581,3,1,1
9271,2,40,1,0,6,1,4.625,6,1,1
9271,2,41,1,0,7,1,5.532,5,1,1
9271,2,42,1,2,7,3,3.992,5,2,2
9271,2,43,1,0,6,1,4.766,6,1,1
9271,2,44,1,2,7,3,5.097,5,2,2
9271,2,45,1,0,12,4,5.324,0,1,2
9271,2,46,1,0,6,1,4.053,6,1,1
9271,2,47,1,2,6,3,4.588,6,2,2
9271,2,48,1,4,9,4,3.566,3,3,2
9271,2,49,1,0,12,2,4.17,0,1,1
9271,2,50,1,0,9,2,2.758,3,1,1
9271,2,51,1,0,6,1,3.697,6,1,1
9271,2,52,1,0,7,1,2.927,5,1,1
9271,2,53,1,0,6,1,2.106,6,1,1
9271,2,54,1,0,12,2,4.734,0,1,1
9271,2,56,1,2,6,3,2.165,6,2,2
9271,2,57,1,2,7,3,2.988,5,2,2
9271,2,58,1,0,9,2,1.57,3,1,1
9271,2,59,1,0,6,1,0.972,6,1,1
9271,2,60,1,0,12,2,0.918,0,1,1
9271,2,61,1,2,7,3,1.435,5,2,2
9271,2,62,1,4,9,4,2.06,3,3,2
9271,2,63,1,0,7,1,1.083,5,1,1
9271,2,64,1,0,12,2,1.352,0,1,1
9271,2,65,1,4,6,3,4.101,6,3,2
9271,2,67,1,0,9,2,1.182,3,1,1
9271,2,68,1,4,6,3,2.459,6,3,2
9271,2,69,1,0,12,2,1.067,0,1,1
9271,2,70,1,2,6,3,1.584,6,2,2
9271,2,71,1,0,12,4,3.575,0,1,2
9271,2,72,1,0,7,1,3.337,5,1,1
9271,2,1,2,0,9,2,2.035,3,1,1
9271,2,2,2,2,7,3,1.36,5,2,2
9271,2,3,2,0,6,1,1.044,6,1,1
9271,2,4,2,0,12,2,0.967,0,1,1
9271,2,5,2,0,7,1,0.81,5,1,1
9271,2,6,2,0,6,1,1.242,6,1,1
9271,2,7,2,2,6,3,1.758,6,2,2
9271,2,8,2,0,12,2,1.044,0,1,1
9271,2,9,2,2,7,3,2.641,5,2,2
9271,2,10,2,4,9,4,2.701,3,3,2
9271,2,11,2,4,9,4,1.567,3,3,2
9271,2,12,2,0,9,2,1.2,3,1,1
9271,2,13,2,2,6,3,1.755,6,2,2
9271,2,14,2,0,12,4,2.379,0,1,2
9271,2,15,2,2,7,3,1.461,5,2,2
9271,2,16,2,2,7,3,4.95,5,2,2
9271,2,17,2,0,12,4,4.43,0,1,2
9271,2,18,2,0,7,1,1.145,5,1,1
9271,2,19,2,2,6,3,1.726,6,2,2
9271,2,20,2,0,12,2,3.151,0,1,1
9271,2,21,2,4,9,4,2.762,3,3,2
9271,2,22,2,0,12,2,1.228,0,1,1
9271,2,23,2,0,12,4,1.166,0,1,2
9271,2,24,2,0,9,2,1.223,3,1,1
9271,2,25,2,0,12,2,0.962,0,1,1
9271,2,26,2,0,6,1,1.279,6,1,1
9271,2,27,2,4,12,4,2.961,0,3,2
9271,2,28,2,0,12,2,0.813,0,1,1
9271,2,29,2,2,6,3,3.586,6,2,2
9271,2,30,2,0,6,1,1.046,6,1,1
9271,2,31,2,2,6,3,1.415,6,2,2
9271,2,32,2,2,9,4,5.1,3,2,2
9271,2,33,2,0,7,1,1.477,5,1,1
9271,2,34,2,4,9,4,1.178,3,3,2
9271,2,35,2,0,9,2,1.336,3,1,1
9271,2,36,2,0,12,4,2.535,0,1,2
9271,2,37,2,2,7,3,2.382,5,2,2
9271,2,38,2,4,9,4,1.334,3,3,2
9271,2,39,2,2,6,3,2.795,6,2,2
9271,2,40,2,2,7,3,3.721,5,2,2
9271,2,41,2,0,6,1,0.97,6,1,1
9271,2,42,2,0,12,2,1.945,0,1,1
9271,2,43,2,0,7,1,2.997,5,1,1
9271,2,44,2,6,12,4,1.348,0,4,2
9271,2,45,2,4,9,4,1.682,3,3,2
9271,2,46,2,0,7,1,1.013,5,1,1
9271,2,47,2,0,9,2,0.933,3,1,1
9271,2,48,2,0,9,2,1.435,3,1,1
9271,2,49,2,6,12,4,1.931,0,4,2
9271,2,50,2,0,6,1,0.873,6,1,1
9271,2,51,2,0,6,1,1.373,6,1,1
9271,2,52,2,0,9,2,1.02,3,1,1
9271,2,53,2,0,7,1,1.022,5,1,1
9271,2,54,2,2,6,3,1.553,6,2,2
9271,2,55,2,0,12,2,1.405,0,1,1
9271,2,56,2,0,6,1,0.934,6,1,1
9271,2,57,2,4,12,4,2.987,0,3,2
9271,2,58,2,4,9,4,4.426,3,3,2
9271,2,59,2,0,7,1,1.424,5,1,1
9271,2,60,2,2,7,3,1.554,5,2,2
9271,2,61,2,6,12,4,1.053,0,4,2
9271,2,62,2,2,6,3,1.637,6,2,2
9271,2,63,2,0,6,1,1.068,6,1,1
9271,2,64,2,0,9,2,1.304,3,1,1
9271,2,65,2,2,7,3,3.676,5,2,2
9271,2,66,2,4,9,4,1.913,3,3,2
9271,2,67,2,0,9,2,0.852,3,1,1
9271,2,68,2,2,6,3,3.184,6,2,2
9271,2,69,2,0,12,2,1.368,0,1,1
9271,2,70,2,0,7,1,0.853,5,1,1
9271,2,71,2,0,7,1,0.711,5,1,1
9271,2,72,2,2,7,3,1.995,5,2,2
9391,2,1,1,0,6,3,1.837,6,1,2
9391,2,2,1,0,6,1,1.174,6,1,1
9391,2,3,1,4,9,2,2.184,3,3,1
9391,2,4,1,6,12,4,1.618,0,4,2
9391,2,5,1,2,7,1,1.921,5,2,1
9391,2,6,1,4,9,4,2.434,3,3,2
9391,2,7,1,6,12,2,1.505,0,4,1
9391,2,8,1,6,12,4,1.088,0,4,2
9391,2,9,1,2,7,3,3.418,5,2,2
9391,2,10,1,4,9,4,2.969,3,3,2
9391,2,11,1,6,12,4,0.832,0,4,2
9391,2,12,1,0,9,2,2.454,3,1,1
9391,2,13,1,0,7,1,1.924,5,1,1
9391,2,14,1,6,12,4,0.862,0,4,2
9391,2,15,1,6,12,2,1.53,0,4,1
9391,2,16,1,0,7,3,1.754,5,1,2
9391,2,17,1,0,6,1,1.487,6,1,1
9391,2,18,1,4,9,4,2.502,3,3,2
9391,2,19,1,0,6,1,2.974,6,1,1
9391,2,20,1,0,6,3,1.626,6,1,2
9391,2,21,1,6,12,2,0.955,0,4,1
9391,2,22,1,6,12,4,0.996,0,4,2
9391,2,23,1,0,7,1,1.888,5,1,1
9391,2,24,1,2,9,2,2.984,3,2,1
9391,2,25,1,4,9,4,1.994,3,3,2
9391,2,26,1,2,7,3,2.297,5,2,2
9391,2,27,1,0,7,1,1.76,5,1,1
9391,2,28,1,0,6,3,1.127,6,1,2
9391,2,29,1,4,9,4,2.287,3,3,2
9391,2,30,1,4,9,2,1.679,3,3,1
9391,2,31,1,6,12,2,0.796,0,4,1
9391,2,32,1,6,12,4,1.004,0,4,2
9391,2,33,1,4,9,4,1.974,3,3,2
9391,2,34,1,4,9,4,1.661,3,3,2
9391,2,35,1,0,7,1,1.834,5,1,1
9391,2,36,1,2,7,3,2.913,5,2,2
9391,2,37,1,2,9,2,3.059,3,2,1
9391,2,38,1,0,6,3,1.943,6,1,2
9391,2,39,1,2,9,2,2.522,3,2,1
9391,2,40,1,0,6,1,1.016,6,1,1
9391,2,41,1,0,7,1,2.314,5,1,1
9391,2,42,1,2,7,3,1.526,5,2,2
9391,2,43,1,0,6,1,1.812,6,1,1
9391,2,44,1,2,7,3,1.623,5,2,2
9391,2,45,1,6,12,4,0.81,0,4,2
9391,2,46,1,0,6,1,1.132,6,1,1
9391,2,47,1,0,6,3,0.762,6,1,2
9391,2,48,1,4,9,4,1.652,3,3,2
9391,2,49,1,6,12,2,0.768,0,4,1
9391,2,50,1,2,9,2,2.34,3,2,1
9391,2,51,1,0,6,1,1.16,6,1,1
9391,2,52,1,0,7,1,1.286,5,1,1
9391,2,53,1,0,6,1,0.896,6,1,1
9391,2,54,1,6,12,2,0.781,0,4,1
9391,2,55,1,6,12,4,2.31,0,4,2
9391,2,56,1,0,6,3,1.515,6,1,2
9391,2,57,1,2,7,3,1.794,5,2,2
9391,2,58,1,2,9,2,2.352,3,2,1
9391,2,59,1,0,6,1,3.01,6,1,1
9391,2,60,1,6,12,2,0.772,0,4,1
9391,2,61,1,2,7,3,2.537,5,2,2
9391,2,62,1,4,9,4,4.106,3,3,2
9391,2,63,1,2,7,1,2.806,5,2,1
9391,2,64,1,6,12,2,1.734,0,4,1
9391,2,65,1,0,6,3,1.307,6,1,2
9391,2,66,1,2,7,3,2.254,5,2,2
9391,2,67,1,4,9,2,2.324,3,3,1
9391,2,68,1,0,6,3,1.858,6,1,2
9391,2,69,1,6,12,2,1.393,0,4,1
9391,2,70,1,0,6,3,1.198,6,1,2
9391,2,71,1,6,12,4,0.774,0,4,2
9391,2,72,1,2,7,1,2.663,5,2,1
9391,2,1,2,4,9,2,3.673,3,3,1
9391,2,2,2,2,7,3,2.366,5,2,2
9391,2,3,2,0,6,1,0.954,6,1,1
9391,2,4,2,6,12,2,2.061,0,4,1
9391,2,5,2,2,7,1,1.864,5,2,1
9391,2,6,2,0,6,1,1.129,6,1,1
9391,2,7,2,0,6,3,1.58,6,1,2
9391,2,8,2,6,12,2,1.37,0,4,1
9391,2,9,2,2,7,3,1.887,5,2,2
9391,2,10,2,4,9,4,1.499,3,3,2
9391,2,11,2,4,9,4,1.604,3,3,2
9391,2,12,2,4,9,2,2.174,3,3,1
9391,2,13,2,0,6,3,0.953,6,1,2
9391,2,14,2,6,12,4,1.53,0,4,2
9391,2,15,2,2,7,3,2.811,5,2,2
9391,2,16,2,2,7,3,1.397,5,2,2
9391,2,17,2,6,12,4,1.468,0,4,2
9391,2,18,2,2,7,1,1.648,5,2,1
9391,2,19,2,0,6,3,0.932,6,1,2
9391,2,20,2,6,12,2,1.318,0,4,1
9391,2,21,2,4,9,4,1.313,3,3,2
9391,2,22,2,6,12,2,1.026,0,4,1
9391,2,23,2,6,12,4,0.797,0,4,2
9391,2,24,2,4,9,2,1.638,3,3,1
9391,2,25,2,6,12,2,0.839,0,4,1
9391,2,26,2,0,6,1,0.926,6,1,1
9391,2,27,2,6,12,4,1.271,0,4,2
9391,2,28,2,6,12,2,0.996,0,4,1
9391,2,29,2,0,6,3,1.32,6,1,2
9391,2,30,2,0,6,1,0.797,6,1,1
9391,2,31,2,0,6,3,0.957,6,1,2
9391,2,32,2,4,9,4,1.234,3,3,2
9391,2,33,2,2,7,1,1.355,5,2,1
9391,2,34,2,4,9,4,2.417,3,3,2
9391,2,35,2,4,9,2,2.533,3,3,1
9391,2,36,2,6,12,4,2.041,0,4,2
9391,2,37,2,4,7,3,1.748,5,3,2
9391,2,38,2,2,9,4,1.668,3,2,2
9391,2,39,2,0,6,3,1.922,6,1,2
9391,2,41,2,0,6,1,1.152,6,1,1
9391,2,42,2,6,12,2,0.711,0,4,1
9391,2,43,2,2,7,1,2.356,5,2,1
9391,2,44,2,6,12,4,3.002,0,4,2
9391,2,45,2,4,9,4,1.664,3,3,2
9391,2,46,2,2,7,1,1.468,5,2,1
9391,2,47,2,4,9,2,1.659,3,3,1
9391,2,48,2,4,9,2,0.849,3,3,1
9391,2,49,2,6,12,4,0.841,0,4,2
9391,2,50,2,0,6,1,1.44,6,1,1
9391,2,51,2,0,6,1,0.875,6,1,1
9391,2,52,2,4,9,2,3.362,3,3,1
9391,2,53,2,2,7,1,1.396,5,2,1
9391,2,54,2,0,6,3,0.824,6,1,2
9391,2,55,2,6,12,2,1.411,0,4,1
9391,2,56,2,0,6,1,3.676,6,1,1
9391,2,57,2,6,12,4,1.457,0,4,2
9391,2,58,2,4,9,4,1.176,3,3,2
9391,2,59,2,2,7,1,1.262,5,2,1
9391,2,60,2,2,7,3,1.521,5,2,2
9391,2,61,2,6,12,4,0.706,0,4,2
9391,2,62,2,0,6,3,0.94,6,1,2
9391,2,63,2,0,6,1,0.819,6,1,1
9391,2,64,2,4,9,2,3.102,3,3,1
9391,2,65,2,2,7,3,1.21,5,2,2
9391,2,66,2,4,9,4,1.599,3,3,2
9391,2,67,2,4,9,2,4.946,3,3,1
9391,2,68,2,0,6,3,1.046,6,1,2
9391,2,69,2,6,12,2,0.734,0,4,1
9391,2,70,2,2,7,1,3.011,5,2,1
9391,2,71,2,2,7,1,1.95,5,2,1
9391,2,72,2,2,7,3,1.392,5,2,2
9351,2,1,1,2,6,3,5.09,6,2,2
9351,2,2,1,2,6,1,3.899,6,2,1
9351,2,3,1,0,9,2,3.092,3,1,1
9351,2,4,1,0,12,4,4.143,0,1,2
9351,2,5,1,2,7,1,4.182,5,2,1
9351,2,6,1,2,9,4,3.759,3,2,2
9351,2,7,1,0,12,2,3.517,0,1,1
9351,2,8,1,2,12,4,2.997,0,2,2
9351,2,9,1,2,7,3,3.031,5,2,2
9351,2,10,1,0,9,4,2.886,3,1,2
9351,2,11,1,4,12,4,2.533,0,3,2
9351,2,12,1,2,9,2,2.074,3,2,1
9351,2,13,1,2,7,1,1.863,5,2,1
9351,2,14,1,2,12,4,2.65,0,2,2
9351,2,15,1,4,12,2,3.166,0,3,1
9351,2,16,1,2,7,3,2.175,5,2,2
9351,2,17,1,4,6,1,2.332,6,3,1
9351,2,18,1,2,9,4,2.859,3,2,2
9351,2,19,1,4,6,1,2.266,6,3,1
9351,2,20,1,2,6,3,2.462,6,2,2
9351,2,21,1,2,12,2,2.559,0,2,1
9351,2,22,1,0,12,4,2.199,0,1,2
9351,2,23,1,2,7,1,1.829,5,2,1
9351,2,24,1,4,9,2,3.021,3,3,1
9351,2,25,1,0,9,4,2.783,3,1,2
9351,2,26,1,2,7,3,2.014,5,2,2
9351,2,27,1,2,7,1,2.076,5,2,1
9351,2,28,1,0,6,3,2.18,6,1,2
9351,2,29,1,0,9,4,1.908,3,1,2
9351,2,30,1,2,9,2,1.883,3,2,1
9351,2,31,1,2,12,2,3.152,0,2,1
9351,2,32,1,0,12,4,1.479,0,1,2
9351,2,33,1,0,9,4,2.106,3,1,2
9351,2,34,1,2,9,4,2.217,3,2,2
9351,2,35,1,2,7,1,2.158,5,2,1
9351,2,36,1,2,7,3,3.726,5,2,2
9351,2,37,1,4,9,2,2.465,3,3,1
9351,2,38,1,2,6,3,3.596,6,2,2
9351,2,39,1,2,9,2,1.919,3,2,1
9351,2,40,1,0,6,1,3.371,6,1,1
9351,2,41,1,0,7,1,4.15,5,1,1
9351,2,42,1,0,7,3,2.178,5,1,2
9351,2,43,1,0,6,1,1.889,6,1,1
9351,2,44,1,0,7,3,2.772,5,1,2
9351,2,45,1,2,12,4,2.887,0,2,2
9351,2,46,1,0,6,1,1.88,6,1,1
9351,2,47,1,0,6,3,2.647,6,1,2
9351,2,48,1,2,9,4,3.481,3,2,2
9351,2,49,1,0,12,2,3.501,0,1,1
9351,2,50,1,2,9,2,3.609,3,2,1
9351,2,51,1,0,6,1,2.069,6,1,1
9351,2,52,1,0,7,1,2.561,5,1,1
9351,2,53,1,0,6,1,1.813,6,1,1
9351,2,54,1,4,12,2,1.961,0,3,1
9351,2,55,1,4,12,4,3.227,0,3,2
9351,2,56,1,0,6,3,2.44,6,1,2
9351,2,57,1,0,7,3,3.078,5,1,2
9351,2,58,1,2,9,2,1.741,3,2,1
9351,2,59,1,0,6,1,1.662,6,1,1
9351,2,60,1,2,12,2,1.992,0,2,1
9351,2,61,1,0,7,3,1.741,5,1,2
9351,2,62,1,2,9,4,1.583,3,2,2
9351,2,63,1,0,7,1,1.729,5,1,1
9351,2,64,1,4,12,2,2.177,0,3,1
9351,2,65,1,0,6,3,2.711,6,1,2
9351,2,66,1,0,7,3,1.947,5,1,2
9351,2,67,1,4,9,2,1.529,3,3,1
9351,2,68,1,2,6,3,1.823,6,2,2
9351,2,69,1,4,12,2,3.158,0,3,1
9351,2,70,1,0,6,3,2.266,6,1,2
9351,2,71,1,2,12,4,3.434,0,2,2
9351,2,72,1,0,7,1,3.075,5,1,1
9351,2,1,2,2,9,2,2.256,3,2,1
9351,2,2,2,0,7,3,1.293,5,1,2
9351,2,3,2,0,6,1,1.681,6,1,1
9351,2,4,2,4,12,2,1.796,0,3,1
9351,2,5,2,0,7,1,1.543,5,1,1
9351,2,6,2,0,6,1,1.352,6,1,1
9351,2,7,2,2,6,3,2.603,6,2,2
9351,2,8,2,4,12,2,1.658,0,3,1
9351,2,9,2,0,7,3,1.822,5,1,2
9351,2,10,2,2,9,4,1.61,3,2,2
9351,2,11,2,2,9,4,1.123,3,2,2
9351,2,12,2,2,9,2,1.398,3,2,1
9351,2,13,2,0,6,3,1.848,6,1,2
9351,2,14,2,4,12,4,1.504,0,3,2
9351,2,15,2,0,7,3,1.386,5,1,2
9351,2,16,2,0,7,3,1.195,5,1,2
9351,2,17,2,4,12,4,1.843,0,3,2
9351,2,18,2,0,7,1,2.247,5,1,1
9351,2,19,2,2,6,3,1.315,6,2,2
9351,2,20,2,0,12,2,1.677,0,1,1
9351,2,21,2,2,9,4,2.207,3,2,2
9351,2,22,2,4,12,2,1.448,0,3,1
9351,2,23,2,4,12,4,1.267,0,3,2
9351,2,24,2,2,9,2,1.484,3,2,1
9351,2,25,2,2,12,2,1.206,0,2,1
9351,2,26,2,0,6,1,2.188,6,1,1
9351,2,27,2,4,12,4,1.949,0,3,2
9351,2,28,2,2,12,2,1.594,0,2,1
9351,2,29,2,0,6,3,1.974,6,1,2
9351,2,30,2,0,6,1,2.499,6,1,1
9351,2,31,2,0,6,3,1.253,6,1,2
9351,2,32,2,2,9,4,1.152,3,2,2
9351,2,33,2,0,7,1,1.545,5,1,1
9351,2,34,2,2,9,4,1.551,3,2,2
9351,2,35,2,2,9,2,1.101,3,2,1
9351,2,36,2,4,12,4,1.391,0,3,2
9351,2,37,2,0,7,3,1.523,5,1,2
9351,2,38,2,2,9,4,1.146,3,2,2
9351,2,39,2,0,6,3,1.609,6,1,2
9351,2,40,2,0,7,3,1.039,5,1,2
9351,2,41,2,0,6,1,2.767,6,1,1
9351,2,42,2,4,12,2,1.422,0,3,1
9351,2,43,2,0,7,1,1.53,5,1,1
9351,2,44,2,4,12,4,2.28,0,3,2
9351,2,45,2,2,9,4,1.847,3,2,2
9351,2,46,2,0,7,1,1.323,5,1,1
9351,2,47,2,2,9,2,1.306,3,2,1
9351,2,48,2,2,9,2,1.175,3,2,1
9351,2,49,2,4,12,4,1.672,0,3,2
9351,2,50,2,0,6,1,2.286,6,1,1
9351,2,51,2,0,6,1,1.45,6,1,1
9351,2,52,2,2,9,2,1.225,3,2,1
9351,2,53,2,0,7,1,2.243,5,1,1
9351,2,54,2,0,6,3,1.366,6,1,2
9351,2,55,2,4,12,2,1.41,0,3,1
9351,2,56,2,0,6,1,2.395,6,1,1
9351,2,57,2,4,12,4,1.44,0,3,2
9351,2,58,2,2,9,4,1.279,3,2,2
9351,2,59,2,0,7,1,1.909,5,1,1
9351,2,60,2,0,7,3,1.736,5,1,2
9351,2,61,2,4,12,4,1.786,0,3,2
9351,2,62,2,0,6,3,1.49,6,1,2
9351,2,63,2,0,6,1,1.602,6,1,1
9351,2,64,2,2,9,2,0.966,3,2,1
9351,2,65,2,0,7,3,1.344,5,1,2
9351,2,66,2,2,9,4,1.246,3,2,2
9351,2,67,2,2,9,2,1.129,3,2,1
9351,2,68,2,0,6,3,1.78,6,1,2
9351,2,69,2,4,12,2,1.828,0,3,1
9351,2,70,2,0,7,1,1.434,5,1,1
9351,2,71,2,0,7,1,1.557,5,1,1
9351,2,72,2,0,7,3,1.136,5,1,2
9341,2,1,1,0,9,2,4.389,3,1,1
9341,2,2,1,0,7,3,2.899,5,1,2
9341,2,3,1,0,6,1,1.735,6,1,1
9341,2,4,1,4,12,2,2.673,0,3,1
9341,2,5,1,0,7,1,2.181,5,1,1
9341,2,6,1,0,6,1,2.413,6,1,1
9341,2,7,1,0,6,3,1.585,6,1,2
9341,2,8,1,4,12,2,1.983,0,3,1
9341,2,9,1,0,7,3,2.019,5,1,2
9341,2,10,1,2,9,4,2.16,3,2,2
9341,2,11,1,2,9,4,4.417,3,2,2
9341,2,12,1,2,9,2,3.451,3,2,1
9341,2,13,1,0,6,3,1.085,6,1,2
9341,2,14,1,2,12,4,5.117,0,2,2
9341,2,15,1,0,7,3,1.767,5,1,2
9341,2,16,1,0,7,3,2.064,5,1,2
9341,2,17,1,4,12,4,3.049,0,3,2
9341,2,18,1,0,7,1,1.523,5,1,1
9341,2,19,1,0,6,3,0.951,6,1,2
9341,2,20,1,2,12,2,2.37,0,2,1
9341,2,21,1,0,9,4,5.381,3,1,2
9341,2,22,1,2,12,2,2.141,0,2,1
9341,2,23,1,4,12,4,4.008,0,3,2
9341,2,24,1,2,9,2,2.705,3,2,1
9341,2,25,1,2,12,2,1.419,0,2,1
9341,2,26,1,0,6,1,1.329,6,1,1
9341,2,27,1,2,12,4,4.491,0,2,2
9341,2,28,1,2,12,2,1.759,0,2,1
9341,2,29,1,0,6,3,0.907,6,1,2
9341,2,30,1,0,6,1,1.488,6,1,1
9341,2,31,1,0,6,3,1.043,6,1,2
9341,2,32,1,0,9,4,2.638,3,1,2
9341,2,33,1,0,7,1,1.791,5,1,1
9341,2,34,1,2,9,4,3.524,3,2,2
9341,2,35,1,2,9,2,2.098,3,2,1
9341,2,36,1,2,12,4,1.644,0,2,2
9341,2,37,1,0,7,3,0.912,5,1,2
9341,2,38,1,2,9,4,4.119,3,2,2
9341,2,39,1,0,6,3,0.838,6,1,2
9341,2,40,1,0,7,3,0.915,5,1,2
9341,2,41,1,0,6,1,0.716,6,1,1
9341,2,42,1,2,12,2,2.195,0,2,1
9341,2,43,1,0,7,1,1.088,5,1,1
9341,2,44,1,2,12,4,1.318,0,2,2
9341,2,45,1,0,9,4,2.053,3,1,2
9341,2,46,1,0,7,1,1.04,5,1,1
9341,2,47,1,2,9,2,2.759,3,2,1
9341,2,48,1,2,9,2,2.205,3,2,1
9341,2,49,1,4,12,4,1.773,0,3,2
9341,2,50,1,0,6,1,2.331,6,1,1
9341,2,51,1,0,6,1,1.831,6,1,1
9341,2,52,1,2,9,2,2.719,3,2,1
9341,2,53,1,0,7,1,1.104,5,1,1
9341,2,54,1,0,6,3,0.923,6,1,2
9341,2,56,1,0,6,1,0.761,6,1,1
9341,2,57,1,4,12,4,0.934,0,3,2
9341,2,58,1,2,9,4,2.244,3,2,2
9341,2,59,1,0,7,1,1.281,5,1,1
9341,2,60,1,0,7,3,1.549,5,1,2
9341,2,61,1,4,12,4,1.135,0,3,2
9341,2,62,1,0,6,3,1.055,6,1,2
9341,2,64,1,4,9,2,4.979,3,3,1
9341,2,65,1,0,7,3,1.398,5,1,2
9341,2,66,1,2,9,4,1.947,3,2,2
9341,2,67,1,0,9,2,1.91,3,1,1
9341,2,68,1,0,6,3,0.818,6,1,2
9341,2,69,1,4,12,2,2.009,0,3,1
9341,2,70,1,0,7,1,2.159,5,1,1
9341,2,71,1,0,7,1,1.017,5,1,1
9341,2,72,1,0,7,3,1.548,5,1,2
9341,2,1,2,0,6,3,1.098,6,1,2
9341,2,2,2,0,6,1,1.115,6,1,1
9341,2,3,2,0,9,2,2.9,3,1,1
9341,2,4,2,6,12,4,1.087,0,4,2
9341,2,5,2,0,7,1,0.879,5,1,1
9341,2,6,2,0,9,4,2.807,3,1,2
9341,2,7,2,2,12,2,3.109,0,2,1
9341,2,8,2,4,12,4,2.71,0,3,2
9341,2,9,2,0,7,3,1.071,5,1,2
9341,2,10,2,2,9,4,1.67,3,2,2
9341,2,11,2,2,12,4,1.413,0,2,2
9341,2,12,2,0,9,2,2.458,3,1,1
9341,2,13,2,0,7,1,0.936,5,1,1
9341,2,14,2,4,12,4,1.658,0,3,2
9341,2,15,2,4,12,2,2.158,0,3,1
9341,2,16,2,0,7,3,0.983,5,1,2
9341,2,17,2,0,6,1,1.492,6,1,1
9341,2,18,2,2,9,4,1.251,3,2,2
9341,2,19,2,0,6,1,0.923,6,1,1
9341,2,20,2,0,6,3,0.679,6,1,2
9341,2,21,2,4,12,2,2.231,0,3,1
9341,2,22,2,4,12,4,1.263,0,3,2
9341,2,24,2,4,9,2,2.973,3,3,1
9341,2,25,2,2,9,4,1.975,3,2,2
9341,2,26,2,0,7,3,0.83,5,1,2
9341,2,27,2,0,7,1,0.636,5,1,1
9341,2,28,2,0,6,3,0.9,6,1,2
9341,2,29,2,0,9,4,2.332,3,1,2
9341,2,34,2,2,9,4,2.521,3,2,2
9341,2,35,2,0,7,1,0.663,5,1,1
9341,2,36,2,0,7,3,0.719,5,1,2
9341,2,37,2,0,9,2,2.665,3,1,1
9341,2,38,2,0,6,3,0.676,6,1,2
9341,2,39,2,0,9,2,1.972,3,1,1
9341,2,40,2,0,6,1,0.675,6,1,1
9341,2,41,2,0,7,1,1.166,5,1,1
9341,2,42,2,0,7,3,1.05,5,1,2
9341,2,43,2,0,6,1,0.745,6,1,1
9341,2,44,2,0,7,3,2.451,5,1,2
9341,2,45,2,2,12,4,1.254,0,2,2
9341,2,46,2,0,6,1,0.632,6,1,1
9341,2,47,2,0,6,3,0.886,6,1,2
9341,2,48,2,2,9,4,1.217,3,2,2
9341,2,49,2,4,12,2,3.957,0,3,1
9341,2,50,2,2,9,2,1.161,3,2,1
9341,2,51,2,0,6,1,0.621,6,1,1
9341,2,52,2,0,7,1,0.745,5,1,1
9341,2,53,2,0,6,1,0.716,6,1,1
9341,2,54,2,2,12,2,1.282,0,2,1
9341,2,55,2,4,12,4,1.828,0,3,2
9341,2,56,2,0,6,3,0.856,6,1,2
9341,2,57,2,0,7,3,1.062,5,1,2
9341,2,58,2,2,9,2,1.773,3,2,1
9341,2,59,2,0,6,1,0.798,6,1,1
9341,2,60,2,4,12,2,1.232,0,3,1
9341,2,61,2,0,7,3,0.829,5,1,2
9341,2,63,2,0,7,1,2.922,5,1,1
9341,2,64,2,4,12,2,0.986,0,3,1
9341,2,65,2,0,6,3,0.664,6,1,2
9341,2,66,2,0,7,3,0.659,5,1,2
9341,2,67,2,2,9,2,0.938,3,2,1
9341,2,69,2,4,12,2,1.15,0,3,1
9341,2,70,2,0,6,3,0.682,6,1,2
9341,2,71,2,4,12,4,0.826,0,3,2
9341,2,72,2,0,7,1,0.796,5,1,1
9381,2,1,1,2,9,2,4.943,3,2,1
9381,2,3,1,0,6,1,2.057,6,1,1
9381,2,4,1,6,12,2,2.788,0,4,1
9381,2,5,1,0,7,1,3.591,5,1,1
9381,2,6,1,0,6,1,2.544,6,1,1
9381,2,7,1,2,6,3,4.339,6,2,2
9381,2,8,1,0,12,2,5.825,0,1,1
9381,2,9,1,2,7,3,2.613,5,2,2
9381,2,10,1,2,9,4,2.01,3,2,2
9381,2,11,1,2,9,4,4.227,3,2,2
9381,2,12,1,0,9,2,2.429,3,1,1
9381,2,13,1,2,6,3,5.984,6,2,2
9381,2,14,1,0,12,4,3.664,0,1,2
9381,2,15,1,2,7,3,3.954,5,2,2
9381,2,16,1,2,7,3,4.267,5,2,2
9381,2,17,1,2,12,4,4.779,0,2,2
9381,2,18,1,0,7,1,2.215,5,1,1
9381,2,19,1,0,6,3,5.779,6,1,2
9381,2,20,1,2,12,2,4.165,0,2,1
9381,2,21,1,4,9,4,4.887,3,3,2
9381,2,22,1,0,12,2,2.592,0,1,1
9381,2,23,1,0,12,4,5.523,0,1,2
9381,2,24,1,2,9,2,5.068,3,2,1
9381,2,25,1,0,12,2,3.063,0,1,1
9381,2,26,1,0,6,1,1.188,6,1,1
9381,2,27,1,6,12,4,3.326,0,4,2
9381,2,28,1,0,12,2,1.93,0,1,1
9381,2,29,1,2,6,3,2.494,6,2,2
9381,2,30,1,0,6,1,1.163,6,1,1
9381,2,31,1,0,6,3,3.293,6,1,2
9381,2,32,1,2,9,4,1.961,3,2,2
9381,2,34,1,2,9,4,2.863,3,2,2
9381,2,35,1,0,9,2,2.18,3,1,1
9381,2,36,1,6,12,4,4.592,0,4,2
9381,2,37,1,2,7,3,2.411,5,2,2
9381,2,38,1,2,9,4,2.178,3,2,2
9381,2,39,1,2,6,3,3.704,6,2,2
9381,2,40,1,2,7,3,2.03,5,2,2
9381,2,41,1,0,6,1,1.431,6,1,1
9381,2,42,1,0,12,2,2.734,0,1,1
9381,2,43,1,0,7,1,1.474,5,1,1
9381,2,44,1,6,12,4,1.505,0,4,2
9381,2,45,1,2,9,4,4.567,3,2,2
9381,2,46,1,0,7,1,3.826,5,1,1
9381,2,47,1,0,9,2,1.202,3,1,1
9381,2,48,1,0,9,2,1.655,3,1,1
9381,2,49,1,6,12,4,1.168,0,4,2
9381,2,50,1,0,6,1,1.158,6,1,1
9381,2,51,1,0,6,1,0.905,6,1,1
9381,2,52,1,0,9,2,2.241,3,1,1
9381,2,53,1,0,7,1,0.756,5,1,1
9381,2,54,1,2,6,3,2.638,6,2,2
9381,2,55,1,0,12,2,1.33,0,1,1
9381,2,56,1,0,6,1,0.899,6,1,1
9381,2,57,1,4,12,4,4.064,0,3,2
9381,2,58,1,2,9,4,4.583,3,2,2
9381,2,59,1,0,7,1,1.213,5,1,1
9381,2,60,1,2,7,3,1.383,5,2,2
9381,2,61,1,6,12,4,4.073,0,4,2
9381,2,62,1,2,6,3,2.506,6,2,2
9381,2,63,1,0,6,1,0.985,6,1,1
9381,2,64,1,0,9,2,1.445,3,1,1
9381,2,65,1,2,7,3,3.969,5,2,2
9381,2,66,1,2,9,4,1.102,3,2,2
9381,2,67,1,0,9,2,2.145,3,1,1
9381,2,68,1,2,6,3,2.493,6,2,2
9381,2,69,1,0,12,2,0.853,0,1,1
9381,2,70,1,0,7,1,0.801,5,1,1
9381,2,71,1,0,7,1,0.764,5,1,1
9381,2,72,1,2,7,3,1.383,5,2,2
9381,2,1,2,2,6,3,2.126,6,2,2
9381,2,2,2,0,6,1,0.815,6,1,1
9381,2,3,2,0,9,2,1.12,3,1,1
9381,2,4,2,6,12,4,2.748,0,4,2
9381,2,5,2,0,7,1,1.339,5,1,1
9381,2,6,2,0,9,4,4.987,3,1,2
9381,2,7,2,0,12,2,0.713,0,1,1
9381,2,8,2,6,12,4,1.169,0,4,2
9381,2,9,2,2,7,3,1.787,5,2,2
9381,2,10,2,2,9,4,2.146,3,2,2
9381,2,11,2,6,12,4,1.881,0,4,2
9381,2,12,2,0,9,2,0.807,3,1,1
9381,2,13,2,0,7,1,0.756,5,1,1
9381,2,14,2,6,12,4,1.975,0,4,2
9381,2,15,2,0,12,2,0.955,0,1,1
9381,2,16,2,2,7,3,1.963,5,2,2
9381,2,17,2,0,6,1,0.576,6,1,1
9381,2,18,2,2,9,4,3.648,3,2,2
9381,2,19,2,0,6,1,0.679,6,1,1
9381,2,20,2,0,6,3,1.915,6,1,2
9381,2,21,2,0,12,2,0.788,0,1,1
9381,2,22,2,6,12,4,1.1,0,4,2
9381,2,23,2,2,7,1,1.425,5,2,1
9381,2,24,2,0,9,2,1.393,3,1,1
9381,2,25,2,2,9,4,1.731,3,2,2
9381,2,26,2,2,7,3,2.602,5,2,2
9381,2,27,2,0,7,1,0.793,5,1,1
9381,2,28,2,0,6,3,1.569,6,1,2
9381,2,29,2,2,9,4,4.52,3,2,2
9381,2,30,2,0,9,2,0.768,3,1,1
9381,2,31,2,0,12,2,1.3,0,1,1
9381,2,32,2,6,12,4,1.885,0,4,2
9381,2,33,2,0,9,4,2.983,3,1,2
9381,2,34,2,2,9,4,1.406,3,2,2
9381,2,35,2,0,7,1,0.651,5,1,1
9381,2,36,2,2,7,3,1.555,5,2,2
9381,2,37,2,0,9,2,1.933,3,1,1
9381,2,38,2,0,6,3,2.936,6,1,2
9381,2,39,2,0,9,2,0.971,3,1,1
9381,2,40,2,0,6,1,0.609,6,1,1
9381,2,41,2,0,7,1,0.954,5,1,1
9381,2,42,2,2,7,3,0.983,5,2,2
9381,2,43,2,0,6,1,0.685,6,1,1
9381,2,44,2,2,7,3,1.216,5,2,2
9381,2,45,2,6,12,4,1.611,0,4,2
9381,2,46,2,0,6,1,0.677,6,1,1
9381,2,47,2,2,6,3,2.539,6,2,2
9381,2,48,2,2,9,4,3.237,3,2,2
9381,2,49,2,0,12,2,1.017,0,1,1
9381,2,50,2,0,9,2,0.805,3,1,1
9381,2,51,2,0,6,1,0.753,6,1,1
9381,2,52,2,0,7,1,0.685,5,1,1
9381,2,53,2,0,6,1,0.769,6,1,1
9381,2,54,2,0,12,2,0.63,0,1,1
9381,2,55,2,6,12,4,2.784,0,4,2
9381,2,56,2,2,6,3,1.972,6,2,2
9381,2,57,2,2,7,3,1.171,5,2,2
9381,2,58,2,0,9,2,0.906,3,1,1
9381,2,59,2,0,6,1,0.65,6,1,1
9381,2,60,2,0,12,2,0.661,0,1,1
9381,2,61,2,2,7,3,1.441,5,2,2
9381,2,62,2,2,9,4,1.707,3,2,2
9381,2,63,2,0,7,1,1.518,5,1,1
9381,2,64,2,0,12,2,0.598,0,1,1
9381,2,65,2,2,6,3,1.668,6,2,2
9381,2,66,2,2,7,3,2.335,5,2,2
9381,2,67,2,0,9,2,0.774,3,1,1
9381,2,68,2,2,6,3,1.211,6,2,2
9381,2,69,2,0,12,2,0.946,0,1,1
9381,2,70,2,2,6,3,1.222,6,2,2
9381,2,71,2,6,12,4,1.935,0,4,2
9381,2,72,2,0,7,1,0.856,5,1,1
9021,2,2,1,4,7,3,2.541,5,3,2
9021,2,3,1,0,6,1,2.089,6,1,1
9021,2,4,1,4,12,2,3.244,0,3,1
9021,2,5,1,0,7,1,5.32,5,1,1
9021,2,6,1,0,6,1,1.193,6,1,1
9021,2,7,1,6,6,3,1.908,6,4,2
9021,2,8,1,6,12,2,1.962,0,4,1
9021,2,9,1,6,7,3,3.374,5,4,2
9021,2,10,1,6,9,4,4.322,3,4,2
9021,2,11,1,6,9,4,3.963,3,4,2
9021,2,12,1,2,9,2,3.342,3,2,1
9021,2,13,1,4,6,3,3.976,6,3,2
9021,2,14,1,6,12,4,1.265,0,4,2
9021,2,15,1,6,7,3,2.675,5,4,2
9021,2,16,1,4,7,3,4.731,5,3,2
9021,2,17,1,6,12,4,2.963,0,4,2
9021,2,18,1,0,7,1,1.031,5,1,1
9021,2,19,1,4,6,3,4.004,6,3,2
9021,2,20,1,0,12,2,1.637,0,1,1
9021,2,21,1,6,9,4,1.824,3,4,2
9021,2,22,1,0,12,2,2.944,0,1,1
9021,2,23,1,6,12,4,2.267,0,4,2
9021,2,24,1,0,9,2,1.188,3,1,1
9021,2,25,1,0,12,2,4.271,0,1,1
9021,2,26,1,0,6,1,2.812,6,1,1
9021,2,27,1,6,12,4,1.399,0,4,2
9021,2,28,1,0,12,2,1.146,0,1,1
9021,2,29,1,6,6,3,3.166,6,4,2
9021,2,30,1,0,6,1,2.051,6,1,1
9021,2,31,1,4,6,3,3.421,6,3,2
9021,2,32,1,4,9,4,4.329,3,3,2
9021,2,33,1,0,7,1,0.889,5,1,1
9021,2,34,1,6,9,4,1.527,3,4,2
9021,2,35,1,0,9,2,1.405,3,1,1
9021,2,36,1,6,12,4,1.352,0,4,2
9021,2,37,1,6,7,3,1.811,5,4,2
9021,2,38,1,6,9,4,2.066,3,4,2
9021,2,39,1,6,6,3,1.113,6,4,2
9021,2,40,1,6,7,3,1.479,5,4,2
9021,2,41,1,0,6,1,0.976,6,1,1
9021,2,42,1,0,12,2,1.902,0,1,1
9021,2,43,1,0,7,1,1.195,5,1,1
9021,2,44,1,6,12,4,1.049,0,4,2
9021,2,45,1,6,9,4,1.087,3,4,2
9021,2,46,1,0,7,1,1.355,5,1,1
9021,2,47,1,0,9,2,0.947,3,1,1
9021,2,48,1,0,9,2,1.224,3,1,1
9021,2,49,1,6,12,4,1.12,0,4,2
9021,2,50,1,0,6,1,1.238,6,1,1
9021,2,51,1,0,6,1,0.73,6,1,1
9021,2,52,1,0,9,2,0.953,3,1,1
9021,2,53,1,0,7,1,0.955,5,1,1
9021,2,54,1,6,6,3,1.135,6,4,2
9021,2,55,1,0,12,2,1.059,0,1,1
9021,2,56,1,0,6,1,0.628,6,1,1
9021,2,57,1,6,12,4,0.985,0,4,2
9021,2,58,1,6,9,4,1.095,3,4,2
9021,2,59,1,0,7,1,1.365,5,1,1
9021,2,60,1,6,7,3,0.8,5,4,2
9021,2,61,1,6,12,4,1.41,0,4,2
9021,2,62,1,6,6,3,0.786,6,4,2
9021,2,63,1,0,6,1,0.762,6,1,1
9021,2,64,1,0,9,2,0.694,3,1,1
9021,2,65,1,6,7,3,1.498,5,4,2
9021,2,66,1,6,9,4,1.534,3,4,2
9021,2,67,1,0,9,2,1.514,3,1,1
9021,2,68,1,6,6,3,1.846,6,4,2
9021,2,69,1,0,12,2,0.861,0,1,1
9021,2,70,1,0,7,1,1.002,5,1,1
9021,2,71,1,0,7,1,0.685,5,1,1
9021,2,72,1,6,7,3,1.6,5,4,2
9021,2,1,2,6,6,3,1.127,6,4,2
9021,2,2,2,0,6,1,1.089,6,1,1
9021,2,3,2,0,9,2,1.81,3,1,1
9021,2,4,2,6,12,4,1.06,0,4,2
9021,2,5,2,0,7,1,0.971,5,1,1
9021,2,6,2,6,9,4,1.189,3,4,2
9021,2,7,2,0,12,2,2.091,0,1,1
9021,2,8,2,6,12,4,0.842,0,4,2
9021,2,9,2,6,7,3,1.068,5,4,2
9021,2,10,2,6,9,4,2.075,3,4,2
9021,2,11,2,6,12,4,0.714,0,4,2
9021,2,12,2,0,9,2,0.744,3,1,1
9021,2,13,2,0,7,1,0.534,5,1,1
9021,2,14,2,6,12,4,2.265,0,4,2
9021,2,15,2,0,12,2,0.988,0,1,1
9021,2,16,2,6,7,3,0.916,5,4,2
9021,2,17,2,0,6,1,0.857,6,1,1
9021,2,18,2,6,9,4,1.224,3,4,2
9021,2,19,2,0,6,1,1.16,6,1,1
9021,2,20,2,4,6,3,3.101,6,3,2
9021,2,21,2,0,12,2,0.925,0,1,1
9021,2,22,2,6,12,4,1.373,0,4,2
9021,2,23,2,0,7,1,0.883,5,1,1
9021,2,24,2,0,9,2,0.77,3,1,1
9021,2,25,2,6,9,4,0.956,3,4,2
9021,2,26,2,6,7,3,2.211,5,4,2
9021,2,37,2,0,9,2,1.062,3,1,1
9021,2,38,2,6,6,3,0.745,6,4,2
9021,2,39,2,0,9,2,0.597,3,1,1
9021,2,40,2,0,6,1,0.689,6,1,1
9021,2,41,2,0,7,1,0.62,5,1,1
9021,2,42,2,6,7,3,0.68,5,4,2
9021,2,43,2,0,6,1,0.87,6,1,1
9021,2,44,2,6,7,3,1.017,5,4,2
9021,2,45,2,6,12,4,0.844,0,4,2
9021,2,46,2,0,6,1,1.086,6,1,1
9021,2,47,2,6,6,3,1.1,6,4,2
9021,2,48,2,6,9,4,1.414,3,4,2
9021,2,49,2,0,12,2,0.77,0,1,1
9021,2,50,2,0,9,2,2.655,3,1,1
9021,2,51,2,0,6,1,1.442,6,1,1
9021,2,52,2,0,7,1,0.607,5,1,1
9021,2,53,2,0,6,1,0.906,6,1,1
9021,2,54,2,0,12,2,0.751,0,1,1
9021,2,55,2,6,12,4,2.113,0,4,2
9021,2,56,2,6,6,3,1.413,6,4,2
9021,2,57,2,6,7,3,1.324,5,4,2
9021,2,58,2,0,9,2,4.178,3,1,1
9021,2,59,2,0,6,1,0.941,6,1,1
9021,2,60,2,0,12,2,0.886,0,1,1
9021,2,61,2,6,7,3,5.899,5,4,2
9021,2,62,2,6,9,4,2.245,3,4,2
9021,2,63,2,0,7,1,1.032,5,1,1
9021,2,64,2,0,12,2,0.632,0,1,1
9021,2,65,2,4,6,3,2.406,6,3,2
9021,2,66,2,6,7,3,1.065,5,4,2
9021,2,67,2,0,9,2,0.543,3,1,1
9021,2,68,2,6,6,3,1.82,6,4,2
9021,2,69,2,0,12,2,0.619,0,1,1
9021,2,70,2,4,6,3,1.209,6,3,2
9021,2,71,2,6,12,4,2.376,0,4,2
9021,2,72,2,0,7,1,0.77,5,1,1
9061,2,1,1,2,9,2,4.032,3,2,1
9061,2,2,1,0,7,3,3.622,5,1,2
9061,2,3,1,0,6,1,1.37,6,1,1
9061,2,4,1,4,12,2,4.996,0,3,1
9061,2,5,1,0,7,1,3.08,5,1,1
9061,2,6,1,0,6,1,1.617,6,1,1
9061,2,7,1,0,6,3,2.42,6,1,2
9061,2,9,1,0,7,3,4.127,5,1,2
9061,2,10,1,4,9,4,2.731,3,3,2
9061,2,11,1,4,9,4,1.771,3,3,2
9061,2,12,1,4,9,2,2.75,3,3,1
9061,2,13,1,0,6,3,1.273,6,1,2
9061,2,14,1,6,12,4,1.505,0,4,2
9061,2,15,1,0,7,3,2.059,5,1,2
9061,2,16,1,2,7,3,5.019,5,2,2
9061,2,17,1,6,12,4,3.084,0,4,2
9061,2,18,1,0,7,1,1.743,5,1,1
9061,2,19,1,0,6,3,1.891,6,1,2
9061,2,20,1,0,12,2,3.717,0,1,1
9061,2,21,1,2,9,4,2.984,3,2,2
9061,2,22,1,4,12,2,2.368,0,3,1
9061,2,23,1,4,12,4,2.124,0,3,2
9061,2,24,1,2,9,2,4.469,3,2,1
9061,2,25,1,4,12,2,2.448,0,3,1
9061,2,26,1,0,6,1,1.725,6,1,1
9061,2,27,1,4,12,4,2.047,0,3,2
9061,2,28,1,2,12,2,4.578,0,2,1
9061,2,29,1,0,6,3,1.102,6,1,2
9061,2,30,1,0,6,1,1.547,6,1,1
9061,2,31,1,0,6,3,1.941,6,1,2
9061,2,32,1,2,9,4,2.873,3,2,2
9061,2,33,1,0,7,1,4.073,5,1,1
9061,2,34,1,2,9,4,2.248,3,2,2
9061,2,35,1,2,9,2,2.173,3,2,1
9061,2,36,1,4,12,4,1.153,0,3,2
9061,2,37,1,2,7,3,2.78,5,2,2
9061,2,38,1,4,9,4,3.578,3,3,2
9061,2,39,1,0,6,3,1.217,6,1,2
9061,2,40,1,0,7,3,3.383,5,1,2
9061,2,41,1,0,6,1,0.976,6,1,1
9061,2,42,1,4,12,2,2.575,0,3,1
9061,2,43,1,0,7,1,2.491,5,1,1
9061,2,44,1,4,12,4,2.289,0,3,2
9061,2,45,1,2,9,4,4.792,3,2,2
9061,2,46,1,0,7,1,2.475,5,1,1
9061,2,47,1,2,9,2,2.211,3,2,1
9061,2,48,1,2,9,2,2.832,3,2,1
9061,2,49,1,4,12,4,1.248,0,3,2
9061,2,50,1,0,6,1,0.911,6,1,1
9061,2,51,1,0,6,1,1.098,6,1,1
9061,2,52,1,2,9,2,2.106,3,2,1
9061,2,53,1,0,7,1,1.827,5,1,1
9061,2,54,1,0,6,3,1.366,6,1,2
9061,2,55,1,4,12,2,1.499,0,3,1
9061,2,56,1,0,6,1,0.836,6,1,1
9061,2,57,1,4,12,4,1.169,0,3,2
9061,2,58,1,2,9,4,2.352,3,2,2
9061,2,59,1,0,7,1,1.374,5,1,1
9061,2,60,1,0,7,3,1.144,5,1,2
9061,2,61,1,4,12,4,1.242,0,3,2
9061,2,62,1,0,6,3,1.106,6,1,2
9061,2,63,1,0,6,1,0.818,6,1,1
9061,2,64,1,2,9,2,1.478,3,2,1
9061,2,65,1,0,7,3,2.938,5,1,2
9061,2,66,1,2,9,4,2.926,3,2,2
9061,2,67,1,2,9,2,2.698,3,2,1
9061,2,68,1,0,6,3,0.83,6,1,2
9061,2,69,1,4,12,2,1.412,0,3,1
9061,2,70,1,0,7,1,1.267,5,1,1
9061,2,71,1,0,7,1,0.981,5,1,1
9061,2,72,1,0,7,3,1.561,5,1,2
9061,2,1,2,0,6,3,1.075,6,1,2
9061,2,2,2,0,6,1,0.836,6,1,1
9061,2,3,2,2,9,2,1.558,3,2,1
9061,2,4,2,4,12,4,1.337,0,3,2
9061,2,5,2,0,7,1,1.104,5,1,1
9061,2,6,2,2,9,4,1.425,3,2,2
9061,2,7,2,4,12,2,1.184,0,3,1
9061,2,8,2,4,12,4,1.231,0,3,2
9061,2,9,2,0,7,3,1.336,5,1,2
9061,2,10,2,2,9,4,2.624,3,2,2
9061,2,11,2,4,12,4,1.575,0,3,2
9061,2,12,2,2,9,2,1.5,3,2,1
9061,2,13,2,0,7,1,1.09,5,1,1
9061,2,14,2,4,12,4,1.181,0,3,2
9061,2,15,2,4,12,2,1.736,0,3,1
9061,2,16,2,0,7,3,1.008,5,1,2
9061,2,17,2,0,6,1,0.654,6,1,1
9061,2,18,2,2,9,4,1.781,3,2,2
9061,2,19,2,0,6,1,1.012,6,1,1
9061,2,20,2,0,6,3,1.328,6,1,2
9061,2,21,2,4,12,2,1.682,0,3,1
9061,2,22,2,4,12,4,1.33,0,3,2
9061,2,23,2,0,7,1,1.07,5,1,1
9061,2,24,2,2,9,2,1.27,3,2,1
9061,2,25,2,2,9,4,1.736,3,2,2
9061,2,26,2,0,7,3,1.103,5,1,2
9061,2,27,2,0,7,1,0.967,5,1,1
9061,2,28,2,0,6,3,0.766,6,1,2
9061,2,29,2,2,9,4,3.405,3,2,2
9061,2,30,2,2,9,2,1.997,3,2,1
9061,2,31,2,4,12,2,1.162,0,3,1
9061,2,32,2,4,12,4,1.17,0,3,2
9061,2,33,2,2,9,4,1.548,3,2,2
9061,2,34,2,2,9,4,1.203,3,2,2
9061,2,35,2,0,7,1,0.936,5,1,1
9061,2,36,2,0,7,3,0.864,5,1,2
9061,2,37,2,2,9,2,1.938,3,2,1
9061,2,38,2,0,6,3,0.781,6,1,2
9061,2,39,2,2,9,2,1.057,3,2,1
9061,2,40,2,0,6,1,0.67,6,1,1
9061,2,41,2,0,7,1,3.425,5,1,1
9061,2,42,2,0,7,3,0.741,5,1,2
9061,2,43,2,0,6,1,0.747,6,1,1
9061,2,44,2,0,7,3,0.854,5,1,2
9061,2,45,2,4,12,4,1.601,0,3,2
9061,2,46,2,0,6,1,0.73,6,1,1
9061,2,47,2,0,6,3,0.808,6,1,2
9061,2,48,2,2,9,4,1.627,3,2,2
9061,2,49,2,4,12,2,1.166,0,3,1
9061,2,50,2,2,9,2,1.346,3,2,1
9061,2,51,2,0,6,1,0.974,6,1,1
9061,2,52,2,0,7,1,0.86,5,1,1
9061,2,53,2,0,6,1,0.742,6,1,1
9061,2,54,2,4,12,2,1.075,0,3,1
9061,2,55,2,4,12,4,0.989,0,3,2
9061,2,56,2,0,6,3,0.753,6,1,2
9061,2,57,2,0,7,3,0.696,5,1,2
9061,2,58,2,0,9,2,0.719,3,1,1
9061,2,59,2,0,6,1,0.865,6,1,1
9061,2,60,2,2,12,2,2.115,0,2,1
9061,2,61,2,0,7,3,0.847,5,1,2
9061,2,62,2,0,9,4,1.328,3,1,2
9061,2,63,2,0,7,1,1.308,5,1,1
9061,2,64,2,4,12,2,1.813,0,3,1
9061,2,65,2,0,6,3,0.945,6,1,2
9061,2,66,2,0,7,3,0.917,5,1,2
9061,2,67,2,0,9,2,2.667,3,1,1
9061,2,68,2,0,6,3,0.856,6,1,2
9061,2,69,2,2,12,2,2.215,0,2,1
9061,2,70,2,0,6,3,0.845,6,1,2
9061,2,71,2,2,12,4,1.94,0,2,2
9061,2,72,2,0,7,1,0.829,5,1,1
9031,2,2,1,0,6,1,3.08,6,1,1
9031,2,3,1,0,9,2,3.041,3,1,1
9031,2,4,1,4,12,4,3.788,0,3,2
9031,2,5,1,0,7,1,3.308,5,1,1
9031,2,6,1,0,9,4,2.86,3,1,2
9031,2,7,1,2,12,2,3.467,0,2,1
9031,2,8,1,4,12,4,2.354,0,3,2
9031,2,9,1,0,7,3,4.163,5,1,2
9031,2,10,1,0,9,4,2.915,3,1,2
9031,2,11,1,2,12,4,4.171,0,2,2
9031,2,12,1,0,9,2,1.912,3,1,1
9031,2,13,1,0,7,1,1.877,5,1,1
9031,2,14,1,4,12,4,4.44,0,3,2
9031,2,15,1,0,12,2,3.283,0,1,1
9031,2,16,1,0,7,3,2.212,5,1,2
9031,2,17,1,0,6,1,2.266,6,1,1
9031,2,18,1,0,9,4,2.624,3,1,2
9031,2,19,1,0,6,1,1.775,6,1,1
9031,2,20,1,0,6,3,1.788,6,1,2
9031,2,21,1,2,12,2,3.485,0,2,1
9031,2,22,1,4,12,4,2.213,0,3,2
9031,2,23,1,0,7,1,1.642,5,1,1
9031,2,24,1,0,9,2,1.658,3,1,1
9031,2,25,1,0,9,4,1.925,3,1,2
9031,2,26,1,0,7,3,1.802,5,1,2
9031,2,27,1,0,7,1,1.33,5,1,1
9031,2,28,1,0,6,3,1.642,6,1,2
9031,2,29,1,0,9,4,2.561,3,1,2
9031,2,30,1,0,9,2,1.208,3,1,1
9031,2,31,1,2,12,2,2.742,0,2,1
9031,2,32,1,4,12,4,2.517,0,3,2
9031,2,33,1,0,9,4,2.152,3,1,2
9031,2,34,1,0,9,4,1.559,3,1,2
9031,2,35,1,0,7,1,1.717,5,1,1
9031,2,36,1,0,7,3,1.651,5,1,2
9031,2,37,1,0,9,2,1.117,3,1,1
9031,2,38,1,0,6,3,1.529,6,1,2
9031,2,39,1,0,9,2,1.797,3,1,1
9031,2,40,1,0,6,1,1.745,6,1,1
9031,2,41,1,0,7,1,1.3,5,1,1
9031,2,42,1,0,7,3,1.752,5,1,2
9031,2,43,1,0,6,1,0.95,6,1,1
9031,2,44,1,0,7,3,1.241,5,1,2
9031,2,45,1,4,12,4,2.196,0,3,2
9031,2,46,1,0,6,1,1.293,6,1,1
9031,2,47,1,0,6,3,1.788,6,1,2
9031,2,48,1,0,9,4,3.414,3,1,2
9031,2,49,1,2,12,2,1.866,0,2,1
9031,2,50,1,0,9,2,2.071,3,1,1
9031,2,51,1,0,6,1,1.689,6,1,1
9031,2,52,1,0,7,1,1.399,5,1,1
9031,2,53,1,0,6,1,1.026,6,1,1
9031,2,54,1,0,12,2,2.126,0,1,1
9031,2,55,1,4,12,4,1.777,0,3,2
9031,2,56,1,0,6,3,1.397,6,1,2
9031,2,57,1,0,7,3,2.475,5,1,2
9031,2,58,1,0,9,2,1.026,3,1,1
9031,2,59,1,0,6,1,0.9,6,1,1
9031,2,60,1,2,12,2,1.726,0,2,1
9031,2,61,1,0,7,3,1.939,5,1,2
9031,2,62,1,2,9,4,2.364,3,2,2
9031,2,63,1,0,7,1,2.232,5,1,1
9031,2,64,1,2,12,2,1.383,0,2,1
9031,2,65,1,0,6,3,3.23,6,1,2
9031,2,66,1,0,7,3,1.073,5,1,2
9031,2,67,1,0,9,2,2.014,3,1,1
9031,2,68,1,0,6,3,1.204,6,1,2
9031,2,69,1,2,12,2,2.227,0,2,1
9031,2,70,1,0,6,3,1.136,6,1,2
9031,2,71,1,4,12,4,1.695,0,3,2
9031,2,72,1,0,7,1,1.17,5,1,1
9031,2,1,2,0,9,2,2.272,3,1,1
9031,2,2,2,0,7,3,1.406,5,1,2
9031,2,3,2,0,6,1,1.355,6,1,1
9031,2,4,2,2,12,2,1.901,0,2,1
9031,2,5,2,0,7,1,1.888,5,1,1
9031,2,6,2,0,6,1,0.953,6,1,1
9031,2,7,2,0,6,3,1.26,6,1,2
9031,2,8,2,2,12,2,1.627,0,2,1
9031,2,9,2,0,7,3,1.383,5,1,2
9031,2,10,2,2,9,4,2.379,3,2,2
9031,2,11,2,2,9,4,2.548,3,2,2
9031,2,12,2,0,9,2,1.855,3,1,1
9031,2,13,2,0,6,3,1.105,6,1,2
9031,2,14,2,6,12,4,1.432,0,4,2
9031,2,15,2,0,7,3,2.267,5,1,2
9031,2,16,2,0,7,3,0.972,5,1,2
9031,2,17,2,6,12,4,2.444,0,4,2
9031,2,18,2,2,7,1,2.232,5,2,1
9031,2,19,2,0,6,3,1.004,6,1,2
9031,2,20,2,2,12,2,1.438,0,2,1
9031,2,21,2,0,9,4,1.897,3,1,2
9031,2,22,2,2,12,2,1.281,0,2,1
9031,2,23,2,6,12,4,2.116,0,4,2
9031,2,24,2,0,9,2,1.221,3,1,1
9031,2,25,2,2,12,2,1.359,0,2,1
9031,2,26,2,0,6,1,0.877,6,1,1
9031,2,27,2,6,12,4,2.822,0,4,2
9031,2,28,2,4,12,2,1.875,0,3,1
9031,2,29,2,0,6,3,1.287,6,1,2
9031,2,30,2,0,6,1,0.9,6,1,1
9031,2,31,2,0,6,3,1.158,6,1,2
9031,2,32,2,0,9,4,1.249,3,1,2
9031,2,33,2,0,7,1,1.37,5,1,1
9031,2,34,2,0,9,4,2.28,3,1,2
9031,2,35,2,0,9,2,2.158,3,1,1
9031,2,36,2,6,12,4,1.944,0,4,2
9031,2,37,2,0,7,3,0.9,5,1,2
9031,2,38,2,0,9,4,1.683,3,1,2
9031,2,39,2,0,6,3,0.953,6,1,2
9031,2,40,2,0,7,3,1.087,5,1,2
9031,2,41,2,0,6,1,0.921,6,1,1
9031,2,42,2,4,12,2,2.399,0,3,1
9031,2,43,2,0,7,1,1.435,5,1,1
9031,2,44,2,6,12,4,2.265,0,4,2
9031,2,45,2,0,9,4,2.96,3,1,2
9031,2,46,2,0,7,1,1.267,5,1,1
9031,2,47,2,0,9,2,0.914,3,1,1
9031,2,48,2,0,9,2,0.992,3,1,1
9031,2,49,2,6,12,4,2.177,0,4,2
9031,2,50,2,0,6,1,1.063,6,1,1
9031,2,51,2,0,6,1,1.091,6,1,1
9031,2,52,2,0,9,2,1.114,3,1,1
9031,2,53,2,0,7,1,1.099,5,1,1
9031,2,54,2,0,6,3,1.247,6,1,2
9031,2,55,2,4,12,2,2.235,0,3,1
9031,2,56,2,0,6,1,1.348,6,1,1
9031,2,57,2,6,12,4,1.154,0,4,2
9031,2,58,2,2,9,4,2.064,3,2,2
9031,2,59,2,0,7,1,0.957,5,1,1
9031,2,60,2,0,7,3,2.264,5,1,2
9031,2,61,2,6,12,4,1.466,0,4,2
9031,2,62,2,0,6,3,1.491,6,1,2
9031,2,63,2,0,6,1,0.866,6,1,1
9031,2,64,2,0,9,2,0.926,3,1,1
9031,2,65,2,0,7,3,1.513,5,1,2
9031,2,66,2,0,9,4,0.823,3,1,2
9031,2,67,2,0,9,2,0.801,3,1,1
9031,2,68,2,0,6,3,1.453,6,1,2
9031,2,69,2,4,12,2,1.597,0,3,1
9031,2,70,2,0,7,1,1.915,5,1,1
9031,2,71,2,0,7,1,2.974,5,1,1
9031,2,72,2,0,7,3,1.265,5,1,2
909,1,1,1,0,6,3,3.564,6,1,2
909,1,2,1,0,6,1,1.926,6,1,1
909,1,3,1,0,9,2,2.655,3,1,1
909,1,4,1,4,12,4,5.183,0,3,2
909,1,5,1,0,7,1,2.276,5,1,1
909,1,6,1,4,9,4,4.28,3,3,2
909,1,7,1,0,12,2,2.078,0,1,1
909,1,8,1,6,12,4,1.751,0,4,2
909,1,9,1,2,7,3,4.067,5,2,2
909,1,10,1,4,9,4,2.061,3,3,2
909,1,11,1,6,12,4,1.538,0,4,2
909,1,12,1,2,9,2,3.461,3,2,1
909,1,13,1,0,7,1,1.251,5,1,1
909,1,14,1,6,12,4,1.268,0,4,2
909,1,15,1,4,12,2,4.452,0,3,1
909,1,16,1,2,7,3,5.128,5,2,2
909,1,17,1,0,6,1,1.487,6,1,1
909,1,18,1,4,9,4,3.431,3,3,2
909,1,19,1,0,6,1,2.47,6,1,1
909,1,20,1,0,6,3,2.694,6,1,2
909,1,21,1,2,12,2,3.073,0,2,1
909,1,22,1,6,12,4,2.199,0,4,2
909,1,23,1,0,7,1,1.904,5,1,1
909,1,24,1,0,9,2,2.553,3,1,1
909,1,25,1,4,9,4,1.696,3,3,2
909,1,26,1,0,7,3,3.412,5,1,2
909,1,27,1,0,7,1,1.4,5,1,1
909,1,28,1,0,6,3,2.631,6,1,2
909,1,29,1,4,9,4,3.83,3,3,2
909,1,30,1,0,9,2,3.245,3,1,1
909,1,31,1,2,12,2,3.309,0,2,1
909,1,32,1,6,12,4,1.174,0,4,2
909,1,33,1,4,9,4,2.512,3,3,2
909,1,34,1,4,9,4,3.583,3,3,2
909,1,35,1,0,7,1,2.391,5,1,1
909,1,36,1,0,7,3,1.868,5,1,2
909,1,37,1,0,9,2,2.052,3,1,1
909,1,38,1,0,6,3,1.47,6,1,2
909,1,39,1,2,9,2,3.466,3,2,1
909,1,40,1,0,6,1,1.48,6,1,1
909,1,41,1,0,7,1,2.343,5,1,1
909,1,42,1,0,7,3,1.429,5,1,2
909,1,43,1,0,6,1,1.813,6,1,1
909,1,44,1,0,7,3,1.251,5,1,2
909,1,45,1,6,12,4,1.75,0,4,2
909,1,46,1,0,6,1,1.671,6,1,1
909,1,47,1,0,6,3,2.58,6,1,2
909,1,48,1,4,9,4,3.734,3,3,2
909,1,49,1,2,12,2,2.839,0,2,1
909,1,50,1,0,9,2,5.36,3,1,1
909,1,51,1,0,6,1,1.48,6,1,1
909,1,52,1,0,7,1,1.233,5,1,1
909,1,53,1,0,6,1,1.311,6,1,1
909,1,54,1,4,12,2,3.297,0,3,1
909,1,55,1,6,12,4,2.266,0,4,2
909,1,56,1,0,6,3,1.582,6,1,2
909,1,57,1,0,7,3,1.683,5,1,2
909,1,58,1,2,9,2,3.362,3,2,1
909,1,59,1,0,6,1,1.107,6,1,1
909,1,60,1,2,12,2,2.14,0,2,1
909,1,61,1,2,7,3,2.654,5,2,2
909,1,62,1,4,9,4,3.409,3,3,2
909,1,63,1,0,7,1,2.939,5,1,1
909,1,64,1,4,12,2,2.584,0,3,1
909,1,65,1,0,6,3,1.293,6,1,2
909,1,66,1,0,7,3,1.206,5,1,2
909,1,67,1,2,9,2,1.776,3,2,1
909,1,68,1,0,6,3,0.966,6,1,2
909,1,69,1,4,12,2,2.574,0,3,1
909,1,70,1,0,6,3,1.193,6,1,2
909,1,71,1,6,12,4,2.301,0,4,2
909,1,72,1,0,7,1,3.635,5,1,1
909,1,1,2,2,9,2,4.238,3,2,1
909,1,2,2,0,7,3,3.261,5,1,2
909,1,3,2,0,6,1,1.067,6,1,1
909,1,4,2,2,12,2,3.45,0,2,1
909,1,5,2,0,7,1,1.105,5,1,1
909,1,6,2,0,6,1,1.3,6,1,1
909,1,7,2,0,6,3,1.242,6,1,2
909,1,8,2,4,12,2,2.439,0,3,1
909,1,9,2,2,7,3,2.073,5,2,2
909,1,10,2,4,9,4,1.978,3,3,2
909,1,11,2,4,9,4,1.735,3,3,2
909,1,12,2,2,9,2,3.929,3,2,1
909,1,13,2,0,6,3,1.397,6,1,2
909,1,14,2,6,12,4,1.759,0,4,2
909,1,15,2,0,7,3,2.156,5,1,2
909,1,16,2,0,7,3,2.767,5,1,2
909,1,17,2,6,12,4,1.226,0,4,2
909,1,18,2,0,7,1,1.463,5,1,1
909,1,19,2,0,6,3,1.423,6,1,2
909,1,20,2,4,12,2,2.346,0,3,1
909,1,21,2,2,9,4,1.619,3,2,2
909,1,22,2,4,12,2,1.857,0,3,1
909,1,23,2,6,12,4,1.466,0,4,2
909,1,24,2,2,9,2,1.798,3,2,1
909,1,25,2,4,12,2,2.03,0,3,1
909,1,26,2,0,6,1,1.957,6,1,1
909,1,27,2,6,12,4,1.121,0,4,2
909,1,28,2,2,12,2,2.123,0,2,1
909,1,29,2,0,6,3,1.553,6,1,2
909,1,30,2,0,6,1,1.118,6,1,1
909,1,31,2,0,6,3,1.297,6,1,2
909,1,32,2,4,9,4,1.527,3,3,2
909,1,33,2,0,7,1,1.471,5,1,1
909,1,34,2,4,9,4,1.153,3,3,2
909,1,35,2,4,9,2,1.318,3,3,1
909,1,36,2,6,12,4,1.761,0,4,2
909,1,37,2,0,7,3,1.263,5,1,2
909,1,38,2,4,9,4,1.292,3,3,2
909,1,39,2,0,6,3,1.985,6,1,2
909,1,40,2,0,7,3,1.16,5,1,2
909,1,41,2,0,6,1,0.97,6,1,1
909,1,42,2,6,12,2,1.302,0,4,1
909,1,43,2,0,7,1,1,5,1,1
909,1,44,2,6,12,4,1.448,0,4,2
909,1,45,2,4,9,4,2.768,3,3,2
909,1,46,2,0,7,1,1.945,5,1,1
909,1,47,2,0,9,2,3.611,3,1,1
909,1,48,2,0,9,2,4.065,3,1,1
909,1,49,2,6,12,4,1.142,0,4,2
909,1,50,2,0,6,1,1.28,6,1,1
909,1,51,2,0,6,1,1.625,6,1,1
909,1,52,2,2,9,2,2.579,3,2,1
909,1,53,2,0,7,1,1.285,5,1,1
909,1,54,2,0,6,3,1.124,6,1,2
909,1,55,2,4,12,2,2.073,0,3,1
909,1,56,2,0,6,1,1.082,6,1,1
909,1,57,2,6,12,4,2.169,0,4,2
909,1,58,2,4,9,4,2.196,3,3,2
909,1,59,2,0,7,1,1.022,5,1,1
909,1,60,2,0,7,3,1.393,5,1,2
909,1,61,2,6,12,4,1.091,0,4,2
909,1,62,2,0,6,3,2.09,6,1,2
909,1,63,2,0,6,1,1.149,6,1,1
909,1,64,2,4,9,2,2.859,3,3,1
909,1,65,2,0,7,3,0.985,5,1,2
909,1,66,2,4,9,4,2.041,3,3,2
909,1,67,2,2,9,2,2.387,3,2,1
909,1,68,2,0,6,3,1.007,6,1,2
909,1,69,2,4,12,2,2.581,0,3,1
909,1,70,2,0,7,1,0.812,5,1,1
909,1,71,2,0,7,1,1.016,5,1,1
909,1,72,2,0,7,3,0.962,5,1,2
916,1,1,1,0,9,2,1.555,3,1,1
916,1,2,1,0,7,3,3.17,5,1,2
916,1,3,1,0,6,1,2.008,6,1,1
916,1,4,1,0,12,2,3.663,0,1,1
916,1,5,1,0,7,1,2.686,5,1,1
916,1,6,1,0,6,1,1.553,6,1,1
916,1,7,1,0,6,3,1.784,6,1,2
916,1,8,1,0,12,2,1.932,0,1,1
916,1,9,1,0,7,3,2.167,5,1,2
916,1,10,1,0,9,4,1.703,3,1,2
916,1,11,1,0,9,4,1.901,3,1,2
916,1,12,1,0,9,2,2.125,3,1,1
916,1,13,1,0,6,3,2.025,6,1,2
916,1,14,1,0,12,4,2.901,0,1,2
916,1,15,1,0,7,3,1.106,5,1,2
916,1,16,1,0,7,3,0.996,5,1,2
916,1,17,1,0,12,4,1.247,0,1,2
916,1,18,1,0,7,1,0.941,5,1,1
916,1,19,1,0,6,3,1.556,6,1,2
916,1,20,1,4,12,2,3.767,0,3,1
916,1,21,1,0,9,4,1.56,3,1,2
916,1,22,1,4,12,2,1.661,0,3,1
916,1,23,1,4,12,4,1.614,0,3,2
916,1,24,1,0,9,2,1.635,3,1,1
916,1,25,1,4,12,2,1.659,0,3,1
916,1,26,1,0,6,1,1.314,6,1,1
916,1,27,1,4,12,4,1.662,0,3,2
916,1,28,1,4,12,2,1.945,0,3,1
916,1,29,1,0,6,3,1.399,6,1,2
916,1,30,1,0,6,1,1.355,6,1,1
916,1,31,1,0,6,3,2.013,6,1,2
916,1,32,1,0,9,4,1.3,3,1,2
916,1,33,1,0,7,1,0.732,5,1,1
916,1,34,1,0,9,4,1.509,3,1,2
916,1,35,1,0,9,2,1.483,3,1,1
916,1,36,1,4,12,4,1.182,0,3,2
916,1,37,1,0,7,3,0.955,5,1,2
916,1,38,1,0,9,4,1.145,3,1,2
916,1,39,1,0,6,3,1.975,6,1,2
916,1,40,1,0,7,3,1.396,5,1,2
916,1,41,1,0,6,1,1.36,6,1,1
916,1,42,1,4,12,2,1.011,0,3,1
916,1,43,1,0,7,1,1.933,5,1,1
916,1,44,1,4,12,4,1.037,0,3,2
916,1,45,1,0,9,4,1.052,3,1,2
916,1,46,1,0,7,1,1.382,5,1,1
916,1,47,1,0,9,2,1.336,3,1,1
916,1,48,1,0,9,2,1.269,3,1,1
916,1,49,1,4,12,4,1.203,0,3,2
916,1,50,1,0,6,1,1.134,6,1,1
916,1,51,1,0,6,1,1.398,6,1,1
916,1,52,1,0,9,2,1.127,3,1,1
916,1,53,1,0,7,1,1.275,5,1,1
916,1,54,1,0,6,3,1.209,6,1,2
916,1,55,1,0,12,2,2.414,0,1,1
916,1,56,1,0,6,1,1.255,6,1,1
916,1,57,1,4,12,4,1.004,0,3,2
916,1,58,1,0,9,4,1.769,3,1,2
916,1,59,1,0,7,1,0.906,5,1,1
916,1,60,1,0,7,3,1.197,5,1,2
916,1,61,1,4,12,4,1.208,0,3,2
916,1,62,1,0,6,3,1.038,6,1,2
916,1,63,1,0,6,1,2.059,6,1,1
916,1,64,1,0,9,2,0.855,3,1,1
916,1,65,1,0,7,3,1.014,5,1,2
916,1,66,1,0,9,4,1.693,3,1,2
916,1,67,1,0,9,2,1.022,3,1,1
916,1,68,1,0,6,3,0.82,6,1,2
916,1,69,1,4,12,2,1.472,0,3,1
916,1,70,1,0,7,1,1.217,5,1,1
916,1,71,1,0,7,1,1.332,5,1,1
916,1,72,1,0,7,3,1.334,5,1,2
916,1,1,2,0,6,3,2.018,6,1,2
916,1,2,2,0,6,1,1.38,6,1,1
916,1,3,2,0,9,2,1.229,3,1,1
916,1,4,2,4,12,4,1.35,0,3,2
916,1,5,2,0,7,1,1.842,5,1,1
916,1,6,2,0,9,4,1.151,3,1,2
916,1,7,2,4,12,2,1.468,0,3,1
916,1,8,2,4,12,4,1.069,0,3,2
916,1,9,2,0,7,3,1.85,5,1,2
916,1,10,2,0,9,4,2.668,3,1,2
916,1,11,2,4,12,4,2.057,0,3,2
916,1,12,2,0,9,2,1.172,3,1,1
916,1,13,2,0,7,1,0.937,5,1,1
916,1,14,2,4,12,4,1.435,0,3,2
916,1,15,2,4,12,2,1.162,0,3,1
916,1,16,2,0,7,3,1.982,5,1,2
916,1,17,2,0,6,1,1.142,6,1,1
916,1,18,2,0,9,4,1.461,3,1,2
916,1,19,2,0,6,1,1.684,6,1,1
916,1,20,2,0,6,3,1.068,6,1,2
916,1,21,2,4,12,2,1.239,0,3,1
916,1,22,2,4,12,4,1.141,0,3,2
916,1,23,2,0,7,1,1.246,5,1,1
916,1,24,2,0,9,2,1.055,3,1,1
916,1,25,2,0,9,4,1.095,3,1,2
916,1,26,2,0,7,3,1.042,5,1,2
916,1,27,2,0,7,1,2.255,5,1,1
916,1,28,2,0,6,3,1.053,6,1,2
916,1,29,2,0,9,4,1.244,3,1,2
916,1,30,2,0,9,2,1.324,3,1,1
916,1,31,2,4,12,2,1.412,0,3,1
916,1,32,2,4,12,4,1.029,0,3,2
916,1,33,2,0,9,4,3.254,3,1,2
916,1,34,2,0,9,4,2.158,3,1,2
916,1,35,2,0,7,1,1.406,5,1,1
916,1,36,2,0,7,3,2.258,5,1,2
916,1,37,2,0,9,2,1.785,3,1,1
916,1,38,2,0,6,3,1.148,6,1,2
916,1,39,2,0,9,2,1.008,3,1,1
916,1,40,2,0,6,1,1.775,6,1,1
916,1,41,2,0,7,1,1.318,5,1,1
916,1,42,2,0,7,3,1.236,5,1,2
916,1,43,2,0,6,1,1.668,6,1,1
916,1,44,2,0,7,3,1.688,5,1,2
916,1,45,2,4,12,4,1.668,0,3,2
916,1,46,2,0,6,1,2.829,6,1,1
916,1,47,2,0,6,3,0.827,6,1,2
916,1,48,2,0,9,4,1.012,3,1,2
916,1,49,2,4,12,2,1.109,0,3,1
916,1,50,2,0,9,2,1.078,3,1,1
916,1,51,2,0,6,1,0.911,6,1,1
916,1,52,2,0,7,1,1.399,5,1,1
916,1,53,2,0,6,1,0.981,6,1,1
916,1,54,2,4,12,2,1.263,0,3,1
916,1,55,2,4,12,4,1.031,0,3,2
916,1,56,2,0,6,3,0.885,6,1,2
916,1,57,2,0,7,3,1.024,5,1,2
916,1,58,2,0,9,2,0.937,3,1,1
916,1,59,2,0,6,1,1.089,6,1,1
916,1,60,2,4,12,2,0.93,0,3,1
916,1,61,2,0,7,3,1.02,5,1,2
916,1,62,2,0,9,4,1.081,3,1,2
916,1,63,2,0,7,1,0.977,5,1,1
916,1,64,2,4,12,2,0.982,0,3,1
916,1,65,2,0,6,3,0.914,6,1,2
916,1,66,2,0,7,3,1.444,5,1,2
916,1,67,2,0,9,2,1.205,3,1,1
916,1,68,2,0,6,3,0.812,6,1,2
916,1,69,2,4,12,2,1.148,0,3,1
916,1,70,2,0,6,3,0.991,6,1,2
916,1,71,2,4,12,4,0.908,0,3,2
916,1,72,2,0,7,1,1.154,5,1,1
913,1,1,1,0,6,3,1.807,6,1,2
913,1,2,1,0,6,1,1.106,6,1,1
913,1,3,1,4,9,2,2.833,3,3,1
913,1,4,1,6,12,4,0.965,0,4,2
913,1,5,1,0,7,1,1.615,5,1,1
913,1,6,1,4,9,4,1.284,3,3,2
913,1,7,1,6,12,2,0.897,0,4,1
913,1,8,1,6,12,4,1.082,0,4,2
913,1,9,1,0,7,3,1.647,5,1,2
913,1,10,1,4,9,4,2.625,3,3,2
913,1,11,1,6,12,4,0.813,0,4,2
913,1,12,1,4,9,2,1.393,3,3,1
913,1,13,1,0,7,1,1.185,5,1,1
913,1,14,1,6,12,4,1.119,0,4,2
913,1,15,1,6,12,2,0.943,0,4,1
913,1,16,1,0,7,3,3.523,5,1,2
913,1,17,1,0,6,1,3.874,6,1,1
913,1,18,1,4,9,4,1.283,3,3,2
913,1,19,1,0,6,1,0.834,6,1,1
913,1,20,1,0,6,3,0.985,6,1,2
913,1,21,1,6,12,2,1.148,0,4,1
913,1,22,1,6,12,4,1.722,0,4,2
913,1,23,1,0,7,1,1.492,5,1,1
913,1,24,1,4,9,2,1.277,3,3,1
913,1,25,1,4,9,4,1.611,3,3,2
913,1,26,1,0,7,3,1.247,5,1,2
913,1,27,1,0,7,1,0.772,5,1,1
913,1,28,1,0,6,3,1.042,6,1,2
913,1,29,1,4,9,4,1.17,3,3,2
913,1,30,1,4,9,2,2.385,3,3,1
913,1,31,1,6,12,2,0.889,0,4,1
913,1,32,1,6,12,4,0.721,0,4,2
913,1,33,1,4,9,4,0.822,3,3,2
913,1,34,1,4,9,4,0.747,3,3,2
913,1,35,1,0,7,1,1.443,5,1,1
913,1,36,1,0,7,3,0.854,5,1,2
913,1,37,1,4,9,2,1.566,3,3,1
913,1,38,1,0,6,3,1.098,6,1,2
913,1,39,1,4,9,2,1.821,3,3,1
913,1,40,1,0,6,1,1.099,6,1,1
913,1,41,1,0,7,1,1.571,5,1,1
913,1,42,1,0,7,3,1.321,5,1,2
913,1,43,1,0,6,1,0.777,6,1,1
913,1,44,1,0,7,3,0.925,5,1,2
913,1,45,1,6,12,4,1.473,0,4,2
913,1,46,1,0,6,1,1.034,6,1,1
913,1,47,1,0,6,3,1.04,6,1,2
913,1,48,1,4,9,4,1.249,3,3,2
913,1,49,1,6,12,2,1.185,0,4,1
913,1,50,1,4,9,2,5.3,3,3,1
913,1,51,1,0,6,1,0.843,6,1,1
913,1,52,1,0,7,1,1.204,5,1,1
913,1,53,1,0,6,1,1.146,6,1,1
913,1,54,1,6,12,2,1.653,0,4,1
913,1,55,1,6,12,4,2.941,0,4,2
913,1,56,1,0,6,3,0.897,6,1,2
913,1,57,1,0,7,3,1.117,5,1,2
913,1,58,1,4,9,2,1.333,3,3,1
913,1,59,1,0,6,1,0.959,6,1,1
913,1,60,1,6,12,2,2.03,0,4,1
913,1,61,1,0,7,3,1.152,5,1,2
913,1,62,1,4,9,4,1.549,3,3,2
913,1,63,1,0,7,1,0.75,5,1,1
913,1,64,1,6,12,2,1.011,0,4,1
913,1,65,1,0,6,3,0.84,6,1,2
913,1,66,1,0,7,3,1.097,5,1,2
913,1,67,1,4,9,2,0.922,3,3,1
913,1,68,1,0,6,3,0.945,6,1,2
913,1,69,1,6,12,2,1.066,0,4,1
913,1,70,1,0,6,3,1.86,6,1,2
913,1,71,1,6,12,4,0.913,0,4,2
913,1,72,1,0,7,1,2.686,5,1,1
913,1,1,2,4,9,2,3.711,3,3,1
913,1,2,2,0,7,3,1.613,5,1,2
913,1,3,2,0,6,1,1.22,6,1,1
913,1,4,2,6,12,2,1.243,0,4,1
913,1,5,2,0,7,1,2.905,5,1,1
913,1,6,2,0,6,1,3.236,6,1,1
913,1,7,2,0,6,3,1.155,6,1,2
913,1,8,2,6,12,2,0.927,0,4,1
913,1,9,2,0,7,3,1.057,5,1,2
913,1,10,2,4,9,4,1.579,3,3,2
913,1,11,2,4,9,4,0.879,3,3,2
913,1,12,2,4,9,2,0.713,3,3,1
913,1,13,2,0,6,3,1.333,6,1,2
913,1,14,2,6,12,4,0.784,0,4,2
913,1,15,2,0,7,3,0.973,5,1,2
913,1,16,2,0,7,3,1.751,5,1,2
913,1,17,2,6,12,4,1.371,0,4,2
913,1,18,2,0,7,1,1.304,5,1,1
913,1,19,2,0,6,3,1.375,6,1,2
913,1,20,2,6,12,2,1.578,0,4,1
913,1,21,2,4,9,4,1.171,3,3,2
913,1,22,2,6,12,2,0.713,0,4,1
913,1,23,2,6,12,4,0.794,0,4,2
913,1,24,2,4,9,2,2.047,3,3,1
913,1,25,2,6,12,2,1.078,0,4,1
913,1,26,2,0,6,1,1.085,6,1,1
913,1,27,2,6,12,4,0.794,0,4,2
913,1,28,2,6,12,2,0.764,0,4,1
913,1,29,2,0,6,3,1.505,6,1,2
913,1,30,2,0,6,1,1.142,6,1,1
913,1,31,2,0,6,3,0.904,6,1,2
913,1,32,2,4,9,4,1.447,3,3,2
913,1,33,2,0,7,1,1.336,5,1,1
913,1,34,2,4,9,4,2.032,3,3,2
913,1,35,2,4,9,2,1.918,3,3,1
913,1,36,2,6,12,4,2.753,0,4,2
913,1,37,2,0,7,3,1.551,5,1,2
913,1,38,2,4,9,4,3.187,3,3,2
913,1,39,2,0,6,3,0.93,6,1,2
913,1,40,2,0,7,3,1.28,5,1,2
913,1,41,2,0,6,1,0.748,6,1,1
913,1,42,2,6,12,2,1.382,0,4,1
913,1,43,2,0,7,1,0.92,5,1,1
913,1,44,2,6,12,4,0.808,0,4,2
913,1,45,2,4,9,4,1.592,3,3,2
913,1,46,2,0,7,1,1.93,5,1,1
913,1,47,2,4,9,2,1.138,3,3,1
913,1,48,2,4,9,2,1.025,3,3,1
913,1,49,2,6,12,4,1.126,0,4,2
913,1,50,2,0,6,1,0.984,6,1,1
913,1,51,2,0,6,1,0.681,6,1,1
913,1,52,2,4,9,2,1.195,3,3,1
913,1,53,2,0,7,1,1.909,5,1,1
913,1,55,2,6,12,2,1.666,0,4,1
913,1,56,2,0,6,1,0.802,6,1,1
913,1,57,2,6,12,4,0.855,0,4,2
913,1,58,2,4,9,4,2.979,3,3,2
913,1,59,2,0,7,1,0.926,5,1,1
913,1,60,2,0,7,3,0.633,5,1,2
913,1,61,2,6,12,4,1.003,0,4,2
913,1,62,2,0,6,3,0.81,6,1,2
913,1,63,2,0,6,1,0.981,6,1,1
913,1,64,2,4,9,2,4.251,3,3,1
913,1,65,2,0,7,3,1.226,5,1,2
913,1,66,2,4,9,4,1.441,3,3,2
913,1,67,2,4,9,2,1.475,3,3,1
913,1,68,2,0,6,3,1.031,6,1,2
913,1,69,2,6,12,2,0.844,0,4,1
913,1,70,2,0,7,1,1.076,5,1,1
913,1,71,2,0,7,1,0.832,5,1,1
913,1,72,2,0,7,3,0.978,5,1,2
920,1,2,1,2,7,3,3.302,5,2,2
920,1,3,1,0,6,1,3.828,6,1,1
920,1,4,1,0,12,2,5.459,0,1,1
920,1,5,1,0,7,1,3.018,5,1,1
920,1,6,1,0,6,1,2.188,6,1,1
920,1,8,1,0,12,2,1.704,0,1,1
920,1,9,1,2,7,3,3.426,5,2,2
920,1,10,1,2,9,4,1.955,3,2,2
920,1,11,1,2,9,4,1.784,3,2,2
920,1,12,1,0,9,2,1.466,3,1,1
920,1,13,1,2,6,3,2.557,6,2,2
920,1,14,1,4,12,4,5.441,0,3,2
920,1,15,1,0,7,3,2.845,5,1,2
920,1,16,1,2,7,3,2.103,5,2,2
920,1,17,1,2,12,4,2.09,0,2,2
920,1,18,1,0,7,1,1.392,5,1,1
920,1,19,1,2,6,3,2.815,6,2,2
920,1,21,1,2,9,4,3.579,3,2,2
920,1,22,1,0,12,2,1.537,0,1,1
920,1,23,1,2,12,4,1.626,0,2,2
920,1,25,1,0,12,2,1.911,0,1,1
920,1,26,1,0,6,1,0.95,6,1,1
920,1,27,1,4,12,4,3.018,0,3,2
920,1,28,1,0,12,2,3.148,0,1,1
920,1,29,1,2,6,3,2.274,6,2,2
920,1,30,1,0,6,1,0.925,6,1,1
920,1,31,1,2,6,3,2.616,6,2,2
920,1,33,1,0,7,1,0.999,5,1,1
920,1,34,1,2,9,4,2.385,3,2,2
920,1,35,1,0,9,2,2.166,3,1,1
920,1,36,1,4,12,4,3.762,0,3,2
920,1,37,1,2,7,3,3.839,5,2,2
920,1,38,1,2,9,4,1.956,3,2,2
920,1,39,1,2,6,3,2.641,6,2,2
920,1,40,1,2,7,3,1.44,5,2,2
920,1,41,1,0,6,1,0.979,6,1,1
920,1,42,1,0,12,2,0.175,0,1,1
920,1,43,1,0,7,1,1.489,5,1,1
920,1,44,1,4,12,4,3.368,0,3,2
920,1,45,1,2,9,4,3.376,3,2,2
920,1,46,1,0,7,1,1.466,5,1,1
920,1,47,1,0,9,2,2.204,3,1,1
920,1,48,1,0,9,2,1.057,3,1,1
920,1,49,1,4,12,4,3.774,0,3,2
920,1,50,1,0,6,1,1.353,6,1,1
920,1,51,1,0,6,1,2.249,6,1,1
920,1,52,1,0,9,2,4.234,3,1,1
920,1,53,1,0,7,1,1.086,5,1,1
920,1,54,1,2,6,3,3.172,6,2,2
920,1,55,1,0,12,2,3.882,0,1,1
920,1,56,1,0,6,1,3.675,6,1,1
920,1,57,1,4,12,4,2.839,0,3,2
920,1,58,1,2,9,4,4.636,3,2,2
920,1,59,1,0,7,1,1.334,5,1,1
920,1,60,1,0,7,3,1.08,5,1,2
920,1,61,1,4,12,4,2.244,0,3,2
920,1,62,1,0,6,3,2.338,6,1,2
920,1,63,1,0,6,1,2.245,6,1,1
920,1,64,1,0,9,2,1.739,3,1,1
920,1,65,1,2,7,3,3.498,5,2,2
920,1,66,1,2,9,4,3.385,3,2,2
920,1,67,1,0,9,2,2.387,3,1,1
920,1,68,1,2,6,3,2.896,6,2,2
920,1,69,1,0,12,2,3.556,0,1,1
920,1,70,1,0,7,1,1.58,5,1,1
920,1,71,1,0,7,1,1.4,5,1,1
920,1,72,1,2,7,3,1.85,5,2,2
920,1,1,2,2,6,3,3.231,6,2,2
920,1,2,2,0,6,1,1.442,6,1,1
920,1,3,2,0,9,2,1.131,3,1,1
920,1,4,2,4,12,4,2.885,0,3,2
920,1,5,2,0,7,1,1.944,5,1,1
920,1,6,2,2,9,4,2.228,3,2,2
920,1,7,2,0,12,2,1.41,0,1,1
920,1,8,2,4,12,4,2.202,0,3,2
920,1,9,2,2,7,3,3.192,5,2,2
920,1,10,2,2,9,4,2.801,3,2,2
920,1,11,2,4,12,4,1.734,0,3,2
920,1,12,2,0,9,2,1.329,3,1,1
920,1,13,2,0,7,1,1.127,5,1,1
920,1,14,2,4,12,4,1.864,0,3,2
920,1,15,2,0,12,2,1.04,0,1,1
920,1,16,2,2,7,3,2.372,5,2,2
920,1,17,2,0,6,1,1.108,6,1,1
920,1,18,2,2,9,4,2.964,3,2,2
920,1,19,2,0,6,1,0.995,6,1,1
920,1,20,2,2,6,3,2.313,6,2,2
920,1,21,2,0,12,2,1.069,0,1,1
920,1,22,2,4,12,4,4.419,0,3,2
920,1,23,2,0,7,1,1.356,5,1,1
920,1,24,2,0,9,2,2.462,3,1,1
920,1,25,2,2,9,4,2.596,3,2,2
920,1,26,2,2,7,3,1.111,5,2,2
920,1,27,2,0,7,1,1.06,5,1,1
920,1,28,2,2,6,3,1.635,6,2,2
920,1,29,2,2,9,4,1.979,3,2,2
920,1,30,2,0,9,2,1.049,3,1,1
920,1,31,2,0,12,2,1.706,0,1,1
920,1,32,2,4,12,4,2.019,0,3,2
920,1,33,2,2,9,4,1.732,3,2,2
920,1,34,2,2,9,4,3.403,3,2,2
920,1,35,2,0,7,1,0.988,5,1,1
920,1,36,2,2,7,3,1.343,5,2,2
920,1,37,2,0,9,2,0.983,3,1,1
920,1,38,2,2,6,3,2.81,6,2,2
920,1,39,2,0,9,2,0.99,3,1,1
920,1,40,2,0,6,1,1.028,6,1,1
920,1,41,2,0,7,1,1.307,5,1,1
920,1,42,2,2,7,3,2.305,5,2,2
920,1,43,2,0,6,1,0.937,6,1,1
920,1,44,2,2,7,3,1.406,5,2,2
920,1,45,2,4,12,4,1.538,0,3,2
920,1,46,2,0,6,1,0.963,6,1,1
920,1,47,2,2,6,3,2.928,6,2,2
920,1,48,2,2,9,4,1.905,3,2,2
920,1,49,2,0,12,2,0.994,0,1,1
920,1,50,2,0,9,2,0.972,3,1,1
920,1,51,2,0,6,1,0.876,6,1,1
920,1,52,2,0,7,1,1.164,5,1,1
920,1,53,2,0,6,1,0.955,6,1,1
920,1,54,2,0,12,2,0.869,0,1,1
920,1,55,2,4,12,4,1.262,0,3,2
920,1,56,2,2,6,3,1.354,6,2,2
920,1,57,2,2,7,3,1.542,5,2,2
920,1,58,2,0,9,2,0.942,3,1,1
920,1,59,2,0,6,1,1.143,6,1,1
920,1,60,2,0,12,2,2.135,0,1,1
920,1,61,2,2,7,3,1.946,5,2,2
920,1,62,2,2,9,4,2.054,3,2,2
920,1,63,2,0,7,1,1.223,5,1,1
920,1,64,2,0,12,2,1.252,0,1,1
920,1,65,2,2,6,3,2.192,6,2,2
920,1,66,2,2,7,3,1.715,5,2,2
920,1,67,2,0,9,2,2.163,3,1,1
920,1,68,2,2,6,3,1.593,6,2,2
920,1,69,2,0,12,2,1.211,0,1,1
920,1,70,2,2,6,3,1.012,6,2,2
920,1,71,2,4,12,4,2.777,0,3,2
920,1,72,2,0,7,1,1.078,5,1,1
917,1,1,1,0,6,3,1.745,6,1,2
917,1,2,1,0,6,1,2.299,6,1,1
917,1,3,1,0,9,2,3.98,3,1,1
917,1,4,1,4,12,4,3.469,0,3,2
917,1,5,1,0,7,1,2.417,5,1,1
917,1,6,1,2,9,4,3.31,3,2,2
917,1,7,1,2,12,2,3.803,0,2,1
917,1,8,1,4,12,4,2.019,0,3,2
917,1,9,1,0,7,3,3.112,5,1,2
917,1,10,1,2,9,4,2.162,3,2,2
917,1,11,1,0,12,4,3.383,0,1,2
917,1,12,1,0,9,2,4.426,3,1,1
917,1,13,1,0,7,1,2.944,5,1,1
917,1,14,1,6,12,4,2.201,0,4,2
917,1,15,1,2,12,2,2.265,0,2,1
917,1,16,1,2,7,3,4.509,5,2,2
917,1,17,1,0,6,1,1.276,6,1,1
917,1,18,1,2,9,4,3.287,3,2,2
917,1,19,1,0,6,1,0.939,6,1,1
917,1,20,1,0,6,3,1.034,6,1,2
917,1,21,1,2,12,2,2.901,0,2,1
917,1,22,1,6,12,4,1.7,0,4,2
917,1,23,1,0,7,1,2.717,5,1,1
917,1,24,1,2,9,2,3.878,3,2,1
917,1,25,1,4,9,4,1.909,3,3,2
917,1,26,1,2,7,3,2.681,5,2,2
917,1,28,1,0,6,3,3.1,6,1,2
917,1,29,1,4,9,4,2.059,3,3,2
917,1,30,1,2,9,2,3.106,3,2,1
917,1,31,1,2,12,2,2.73,0,2,1
917,1,32,1,6,12,4,1.387,0,4,2
917,1,33,1,4,9,4,2.605,3,3,2
917,1,34,1,4,9,4,3.171,3,3,2
917,1,35,1,0,7,1,2.749,5,1,1
917,1,36,1,2,7,3,3.032,5,2,2
917,1,37,1,2,9,2,3.281,3,2,1
917,1,38,1,0,6,3,2.178,6,1,2
917,1,39,1,2,9,2,4.207,3,2,1
917,1,40,1,0,6,1,1.445,6,1,1
917,1,41,1,0,7,1,2.3,5,1,1
917,1,42,1,2,7,3,3.586,5,2,2
917,1,43,1,0,6,1,1.746,6,1,1
917,1,44,1,2,7,3,2.527,5,2,2
917,1,45,1,6,12,4,2.771,0,4,2
917,1,46,1,0,6,1,1.236,6,1,1
917,1,47,1,0,6,3,1.721,6,1,2
917,1,48,1,4,9,4,3.058,3,3,2
917,1,49,1,4,12,2,3.059,0,3,1
917,1,50,1,2,9,2,3.573,3,2,1
917,1,51,1,0,6,1,1.23,6,1,1
917,1,52,1,0,7,1,2.973,5,1,1
917,1,53,1,0,6,1,1.372,6,1,1
917,1,54,1,4,12,2,3.742,0,3,1
917,1,55,1,6,12,4,1.478,0,4,2
917,1,56,1,0,6,3,1.746,6,1,2
917,1,57,1,2,7,3,2.71,5,2,2
917,1,58,1,2,9,2,3.662,3,2,1
917,1,59,1,0,6,1,1.104,6,1,1
917,1,60,1,4,12,2,3.664,0,3,1
917,1,61,1,2,7,3,2.602,5,2,2
917,1,62,1,4,9,4,3.878,3,3,2
917,1,63,1,0,7,1,2.64,5,1,1
917,1,64,1,6,12,2,2.293,0,4,1
917,1,65,1,0,6,3,2.529,6,1,2
917,1,66,1,0,7,3,3.699,5,1,2
917,1,67,1,2,9,2,3.164,3,2,1
917,1,68,1,0,6,3,1.69,6,1,2
917,1,69,1,4,12,2,3.595,0,3,1
917,1,70,1,0,6,3,1.294,6,1,2
917,1,71,1,6,12,4,2.003,0,4,2
917,1,72,1,0,7,1,1.879,5,1,1
917,1,1,2,2,9,2,3.841,3,2,1
917,1,2,2,2,7,3,3.129,5,2,2
917,1,3,2,0,6,1,1.244,6,1,1
917,1,4,2,4,12,2,2.436,0,3,1
917,1,5,2,2,7,1,2.907,5,2,1
917,1,6,2,0,6,1,0.982,6,1,1
917,1,7,2,0,6,3,1.477,6,1,2
917,1,8,2,6,12,2,3.634,0,4,1
917,1,9,2,2,7,3,3.947,5,2,2
917,1,10,2,4,9,4,2.671,3,3,2
917,1,11,2,4,9,4,2.185,3,3,2
917,1,12,2,2,9,2,2.818,3,2,1
917,1,13,2,0,6,3,2.679,6,1,2
917,1,14,2,6,12,4,2.994,0,4,2
917,1,15,2,2,7,3,3.046,5,2,2
917,1,16,2,2,7,3,2.288,5,2,2
917,1,17,2,6,12,4,1.852,0,4,2
917,1,19,2,0,6,3,1.337,6,1,2
917,1,20,2,6,12,2,2.34,0,4,1
917,1,21,2,4,9,4,3.509,3,3,2
917,1,22,2,6,12,2,2.386,0,4,1
