Date 	 Name 	 ID 	 gender 	 Trial 	 RUN 	 Decision 	 OfferType 	 Condition 	 onstrial 	 ronsfix 	 ronsdec 	 ronsdec2 	 onsjitter 	 RT 	 GameOn 	 
02-Nov-2017	sub208	905	  1	  1	  1	 0.00	  6	  3	 0.000	 0.014	 0.495	 2.219	 6.496	 1.709	12745.863	
02-Nov-2017	sub208	905	  1	  2	  1	 0.00	  6	  1	10.465	10.459	10.973	13.244	16.941	 2.255	12745.863	
02-Nov-2017	sub208	905	  1	  3	  1	 2.00	  9	  2	18.462	18.467	18.964	21.932	24.966	 2.951	12745.863	
02-Nov-2017	sub208	905	  1	  4	  1	 4.00	 12	  4	30.796	30.801	31.299	34.648	37.300	 3.344	12745.863	
02-Nov-2017	sub208	905	  1	  5	  1	 0.00	  7	  1	43.034	43.037	43.534	45.059	49.536	 1.509	12745.863	
02-Nov-2017	sub208	905	  1	  6	  1	 4.00	  9	  4	51.611	51.608	52.105	55.620	58.107	 3.506	12745.863	
02-Nov-2017	sub208	905	  1	  7	  1	 4.00	 12	  2	64.051	64.059	64.556	68.850	70.558	 4.278	12745.863	
02-Nov-2017	sub208	905	  1	  8	  1	 4.00	 12	  4	74.566	74.570	75.067	76.509	81.069	 1.432	12745.863	
02-Nov-2017	sub208	905	  1	  9	  1	 2.00	  7	  3	84.269	84.268	84.766	89.043	90.768	 4.261	12745.863	
02-Nov-2017	sub208	905	  1	 10	  1	 4.00	  9	  4	92.684	92.690	93.188	94.829	99.189	 1.630	12745.863	
02-Nov-2017	sub208	905	  1	 11	  1	 4.00	 12	  4	101.482	101.477	101.975	105.373	107.976	 3.387	12745.863	
02-Nov-2017	sub208	905	  1	 12	  1	 2.00	  9	  2	112.619	112.618	113.116	115.967	119.117	 2.837	12745.863	
02-Nov-2017	sub208	905	  1	 13	  1	 0.00	  7	  1	120.698	120.692	121.206	122.698	127.191	 1.475	12745.863	
02-Nov-2017	sub208	905	  1	 14	  1	 4.00	 12	  4	130.751	130.756	131.253	133.740	137.255	 2.476	12745.863	
02-Nov-2017	sub208	905	  1	 15	  1	 4.00	 12	  2	141.733	141.731	142.228	145.942	148.230	 3.701	12745.863	
02-Nov-2017	sub208	905	  1	 16	  1	 0.00	  7	  3	153.757	153.751	154.265	156.917	160.250	 2.648	12745.863	
02-Nov-2017	sub208	905	  1	 17	  1	 0.00	  6	  1	162.020	162.024	162.521	163.549	168.523	 1.016	12745.863	
02-Nov-2017	sub208	905	  1	 18	  1	 2.00	  9	  4	171.409	171.407	171.905	176.348	177.906	 4.440	12745.863	
02-Nov-2017	sub208	905	  1	 19	  1	 0.00	  6	  1	179.441	179.449	179.945	180.857	185.947	 0.895	12745.863	
02-Nov-2017	sub208	905	  1	 20	  1	 0.00	  6	  3	190.021	190.025	190.523	191.700	196.524	 1.166	12745.863	
02-Nov-2017	sub208	905	  1	 21	  1	 4.00	 12	  2	200.889	200.885	201.382	203.968	207.384	 2.570	12745.863	
02-Nov-2017	sub208	905	  1	 22	  1	 6.00	 12	  4	210.809	210.815	211.313	212.506	217.314	 1.191	12745.863	
02-Nov-2017	sub208	905	  1	 23	  1	 0.00	  7	  1	222.904	222.901	223.399	224.609	229.400	 1.201	12745.863	
02-Nov-2017	sub208	905	  1	 24	  1	 2.00	  9	  2	232.261	232.269	232.766	234.855	238.767	 2.082	12745.863	
02-Nov-2017	sub208	905	  1	 25	  1	 4.00	  9	  4	244.432	244.437	244.935	246.759	250.936	 1.808	12745.863	
02-Nov-2017	sub208	905	  1	 26	  1	 2.00	  7	  3	255.540	255.545	256.043	257.667	262.044	 1.621	12745.863	
02-Nov-2017	sub208	905	  1	 27	  1	 0.00	  7	  1	268.923	268.925	269.422	270.367	275.423	 0.930	12745.863	
02-Nov-2017	sub208	905	  1	 28	  1	 0.00	  6	  3	281.337	281.342	281.840	282.934	287.841	 1.080	12745.863	
02-Nov-2017	sub208	905	  1	 29	  1	 4.00	  9	  4	289.370	289.366	289.864	291.522	295.865	 1.655	12745.863	
02-Nov-2017	sub208	905	  1	 30	  1	 2.00	  9	  2	301.985	301.983	302.480	304.437	308.482	 1.950	12745.863	
02-Nov-2017	sub208	905	  1	 31	  1	 4.00	 12	  2	310.457	310.455	310.952	312.809	316.954	 1.855	12745.863	
02-Nov-2017	sub208	905	  1	 32	  1	 6.00	 12	  4	320.958	320.966	321.463	322.541	327.465	 1.071	12745.863	
02-Nov-2017	sub208	905	  1	 33	  1	 4.00	  9	  4	328.913	328.907	329.421	331.709	335.406	 2.273	12745.863	
02-Nov-2017	sub208	905	  1	 34	  1	 4.00	  9	  4	338.109	338.108	338.606	340.231	344.607	 1.616	12745.863	
02-Nov-2017	sub208	905	  1	 35	  1	 0.00	  7	  1	350.009	350.012	350.509	351.753	356.511	 1.240	12745.863	
02-Nov-2017	sub208	905	  1	 36	  1	 2.00	  7	  3	358.613	358.617	359.114	360.755	365.116	 1.628	12745.863	
02-Nov-2017	sub208	905	  1	 37	  1	 2.00	  9	  2	367.529	367.536	368.033	369.310	374.035	 1.268	12745.863	
02-Nov-2017	sub208	905	  1	 38	  1	 0.00	  6	  3	380.053	380.053	380.551	381.728	386.552	 1.175	12745.863	
02-Nov-2017	sub208	905	  1	 39	  1	 2.00	  9	  2	390.470	390.465	390.979	392.620	396.964	 1.635	12745.863	
02-Nov-2017	sub208	905	  1	 40	  1	 0.00	  6	  1	403.340	403.347	403.844	404.822	409.845	 0.969	12745.863	
02-Nov-2017	sub208	905	  1	 41	  1	 0.00	  7	  1	415.499	415.499	415.996	416.974	421.998	 0.976	12745.863	
02-Nov-2017	sub208	905	  1	 42	  1	 2.00	  7	  3	427.237	427.237	427.734	430.238	433.736	 2.486	12745.863	
02-Nov-2017	sub208	905	  1	 43	  1	 0.00	  6	  1	440.073	440.069	440.566	441.296	446.568	 0.726	12745.863	
02-Nov-2017	sub208	905	  1	 44	  1	 2.00	  7	  3	449.546	449.552	450.049	451.260	456.051	 1.203	12745.863	
02-Nov-2017	sub208	905	  1	 45	  1	 6.00	 12	  4	461.119	461.124	461.621	463.296	467.623	 1.662	12745.863	
02-Nov-2017	sub208	905	  1	 46	  1	 0.00	  6	  1	469.101	469.099	469.596	470.475	475.598	 0.864	12745.863	
02-Nov-2017	sub208	905	  1	 47	  1	 0.00	  6	  3	476.966	476.974	477.471	478.565	483.473	 1.085	12745.863	
02-Nov-2017	sub208	905	  1	 48	  1	 4.00	  9	  4	488.370	488.363	488.877	491.231	494.879	 2.351	12745.863	
02-Nov-2017	sub208	905	  1	 49	  1	 4.00	 12	  2	498.204	498.211	498.709	500.234	504.710	 1.519	12745.863	
02-Nov-2017	sub208	905	  1	 50	  1	 2.00	  9	  2	505.932	505.937	506.434	508.291	512.436	 1.849	12745.863	
02-Nov-2017	sub208	905	  1	 51	  1	 0.00	  6	  1	515.775	515.768	516.282	517.144	522.284	 0.849	12745.863	
02-Nov-2017	sub208	905	  1	 52	  1	 0.00	  7	  1	526.535	526.528	527.042	528.236	533.044	 1.185	12745.863	
02-Nov-2017	sub208	905	  1	 53	  1	 0.00	  6	  1	538.488	538.481	538.995	539.808	544.997	 0.807	12745.863	
02-Nov-2017	sub208	905	  1	 54	  1	 4.00	 12	  2	549.643	549.639	550.136	551.313	556.138	 1.162	12745.863	
02-Nov-2017	sub208	905	  1	 55	  1	 6.00	 12	  4	557.417	557.415	557.912	558.873	563.913	 0.955	12745.863	
02-Nov-2017	sub208	905	  1	 56	  1	 0.00	  6	  3	568.961	568.970	569.467	570.495	575.469	 1.023	12745.863	
02-Nov-2017	sub208	905	  1	 57	  1	 2.00	  7	  3	582.361	582.366	582.863	584.306	588.865	 1.435	12745.863	
02-Nov-2017	sub208	905	  1	 58	  1	 2.00	  9	  2	591.740	591.733	592.247	594.502	598.248	 2.242	12745.863	
02-Nov-2017	sub208	905	  1	 59	  1	 0.00	  6	  1	604.306	604.300	604.814	605.527	610.799	 0.700	12745.863	
02-Nov-2017	sub208	905	  1	 60	  1	 4.00	 12	  2	617.814	617.812	618.309	619.519	624.311	 1.196	12745.863	
02-Nov-2017	sub208	905	  1	 61	  1	 2.00	  7	  3	631.259	631.257	631.754	632.882	637.756	 1.119	12745.863	
02-Nov-2017	sub208	905	  1	 62	  1	 4.00	  9	  4	643.052	643.045	643.559	646.642	649.560	 3.074	12745.863	
02-Nov-2017	sub208	905	  1	 63	  1	 0.00	  7	  1	651.950	651.948	652.445	653.788	658.447	 1.332	12745.863	
02-Nov-2017	sub208	905	  1	 64	  1	 4.00	 12	  2	663.024	663.022	663.520	665.045	669.521	 1.513	12745.863	
02-Nov-2017	sub208	905	  1	 65	  1	 0.00	  6	  3	670.910	670.914	671.411	672.240	677.413	 0.821	12745.863	
02-Nov-2017	sub208	905	  1	 66	  1	 2.00	  7	  3	683.232	683.232	683.729	685.039	689.731	 1.303	12745.863	
02-Nov-2017	sub208	905	  1	 67	  1	 2.00	  9	  2	692.823	692.831	693.329	694.489	699.330	 1.143	12745.863	
02-Nov-2017	sub208	905	  1	 68	  1	 0.00	  6	  3	705.684	705.680	706.177	706.990	712.179	 0.799	12745.863	
02-Nov-2017	sub208	905	  1	 69	  1	 4.00	 12	  2	718.492	718.495	718.993	720.286	724.994	 1.279	12745.863	
02-Nov-2017	sub208	905	  1	 70	  1	 0.00	  6	  3	727.351	727.349	727.846	728.741	733.848	 0.881	12745.863	
02-Nov-2017	sub208	905	  1	 71	  1	 6.00	 12	  4	737.279	737.279	737.777	738.771	743.778	 0.991	12745.863	
02-Nov-2017	sub208	905	  1	 72	  1	 0.00	  7	  1	748.130	748.139	748.636	749.564	754.638	 0.924	12745.863	
02-Nov-2017	sub208	905	  1	  1	  2	 2.00	  9	  2	 0.000	 0.004	 0.501	 1.960	 6.503	 1.443	13533.038	
02-Nov-2017	sub208	905	  1	  2	  2	 2.00	  7	  3	 8.270	 8.277	 8.774	10.366	14.776	 1.578	13533.038	
02-Nov-2017	sub208	905	  1	  3	  2	 0.00	  6	  1	20.015	20.015	20.512	21.291	26.514	 0.768	13533.038	
02-Nov-2017	sub208	905	  1	  4	  2	 4.00	 12	  2	32.169	32.167	32.665	34.123	38.666	 1.455	13533.038	
02-Nov-2017	sub208	905	  1	  5	  2	 0.00	  7	  1	44.110	44.104	44.618	45.447	50.603	 0.822	13533.038	
02-Nov-2017	sub208	905	  1	  6	  2	 0.00	  6	  1	55.939	55.941	56.439	57.384	62.440	 0.937	13533.038	
02-Nov-2017	sub208	905	  1	  7	  2	 0.00	  6	  3	69.027	69.022	69.519	70.348	75.521	 0.823	13533.038	
02-Nov-2017	sub208	905	  1	  8	  2	 4.00	 12	  2	78.047	78.041	78.555	79.732	84.540	 1.164	13533.038	
02-Nov-2017	sub208	905	  1	  9	  2	 2.00	  7	  3	86.913	86.911	87.408	88.602	93.410	 1.185	13533.038	
02-Nov-2017	sub208	905	  1	 10	  2	 4.00	  9	  4	95.596	95.598	96.096	97.654	102.097	 1.551	13533.038	
02-Nov-2017	sub208	905	  1	 11	  2	 4.00	  9	  4	104.158	104.153	104.667	105.861	110.652	 1.179	13533.038	
02-Nov-2017	sub208	905	  1	 12	  2	 2.00	  9	  2	113.265	113.271	113.769	115.095	119.770	 1.310	13533.038	
02-Nov-2017	sub208	905	  1	 13	  2	 0.00	  6	  3	123.707	123.716	124.213	125.142	130.215	 0.913	13533.038	
02-Nov-2017	sub208	905	  1	 14	  2	 6.00	 12	  4	135.732	135.736	136.233	138.024	142.235	 1.789	13533.038	
02-Nov-2017	sub208	905	  1	 15	  2	 2.00	  7	  3	147.519	147.523	148.021	149.098	154.022	 1.065	13533.038	
02-Nov-2017	sub208	905	  1	 16	  2	 2.00	  7	  3	156.844	156.841	157.338	158.449	163.340	 1.108	13533.038	
02-Nov-2017	sub208	905	  1	 17	  2	 6.00	 12	  4	166.587	166.589	167.087	168.048	173.088	 0.951	13533.038	
02-Nov-2017	sub208	905	  1	 18	  2	 0.00	  7	  1	177.194	177.200	177.697	178.692	183.699	 0.988	13533.038	
02-Nov-2017	sub208	905	  1	 19	  2	 0.00	  6	  3	186.832	186.832	187.329	188.142	193.331	 0.804	13533.038	
02-Nov-2017	sub208	905	  1	 20	  2	 4.00	 12	  2	194.992	194.989	195.486	197.161	201.488	 1.671	13533.038	
02-Nov-2017	sub208	905	  1	 21	  2	 4.00	  9	  4	207.331	207.323	207.838	210.341	213.839	 2.487	13533.038	
02-Nov-2017	sub208	905	  1	 22	  2	 4.00	 12	  2	219.535	219.542	220.040	221.515	226.041	 1.469	13533.038	
02-Nov-2017	sub208	905	  1	 23	  2	 6.00	 12	  4	230.726	230.733	231.230	232.275	237.232	 1.030	13533.038	
02-Nov-2017	sub208	905	  1	 24	  2	 2.00	  9	  2	239.293	239.288	239.802	241.261	245.787	 1.443	13533.038	
02-Nov-2017	sub208	905	  1	 25	  2	 4.00	 12	  2	250.510	250.512	251.009	253.579	257.011	 2.555	13533.038	
02-Nov-2017	sub208	905	  1	 26	  2	 0.00	  6	  1	259.919	259.912	260.426	261.338	266.428	 0.906	13533.038	
02-Nov-2017	sub208	905	  1	 27	  2	 6.00	 12	  4	268.279	268.284	268.782	269.743	274.783	 0.950	13533.038	
02-Nov-2017	sub208	905	  1	 28	  2	 4.00	 12	  2	279.436	279.442	279.939	281.315	285.941	 1.360	13533.038	
02-Nov-2017	sub208	905	  1	 29	  2	 0.00	  6	  3	288.890	288.892	289.389	290.202	295.391	 0.799	13533.038	
02-Nov-2017	sub208	905	  1	 30	  2	 0.00	  6	  1	299.075	299.071	299.569	300.282	305.570	 0.699	13533.038	
02-Nov-2017	sub208	905	  1	 31	  2	 0.00	  6	  3	307.251	307.245	307.759	308.405	313.744	 0.644	13533.038	
02-Nov-2017	sub208	905	  1	 32	  2	 4.00	  9	  4	319.181	319.182	319.679	322.100	325.681	 2.404	13533.038	
02-Nov-2017	sub208	905	  1	 33	  2	 0.00	  7	  1	330.624	330.621	331.118	332.296	337.120	 1.164	13533.038	
02-Nov-2017	sub208	905	  1	 34	  2	 4.00	  9	  4	343.650	343.652	344.150	345.758	350.151	 1.597	13533.038	
02-Nov-2017	sub208	905	  1	 35	  2	 2.00	  9	  2	354.025	354.031	354.528	355.937	360.530	 1.395	13533.038	
02-Nov-2017	sub208	905	  1	 36	  2	 6.00	 12	  4	362.165	362.171	362.668	363.663	368.670	 0.982	13533.038	
02-Nov-2017	sub208	905	  1	 37	  2	 2.00	  7	  3	375.072	375.069	375.567	377.457	381.568	 1.884	13533.038	
02-Nov-2017	sub208	905	  1	 38	  2	 4.00	  9	  4	387.300	387.305	387.802	389.045	393.803	 1.232	13533.038	
02-Nov-2017	sub208	905	  1	 39	  2	 0.00	  6	  3	396.505	396.506	397.003	397.816	403.005	 0.799	13533.038	
02-Nov-2017	sub208	905	  1	 40	  2	 2.00	  7	  3	408.021	408.028	408.526	410.432	414.527	 1.892	13533.038	
02-Nov-2017	sub208	905	  1	 41	  2	 0.00	  6	  1	417.538	417.544	418.042	418.804	424.043	 0.751	13533.038	
02-Nov-2017	sub208	905	  1	 42	  2	 4.00	 12	  2	429.592	429.597	430.095	431.305	436.096	 1.194	13533.038	
02-Nov-2017	sub208	905	  1	 43	  2	 0.00	  7	  1	439.608	439.611	440.108	441.269	446.110	 1.149	13533.038	
02-Nov-2017	sub208	905	  1	 44	  2	 6.00	 12	  4	449.005	449.011	449.509	450.586	455.510	 1.061	13533.038	
02-Nov-2017	sub208	905	  1	 45	  2	 4.00	  9	  4	458.399	458.395	458.892	460.351	464.894	 1.452	13533.038	
02-Nov-2017	sub208	905	  1	 46	  2	 0.00	  7	  1	470.719	470.713	471.227	472.155	477.212	 0.918	13533.038	
02-Nov-2017	sub208	905	  1	 47	  2	 2.00	  9	  2	481.434	481.440	481.937	483.777	487.939	 1.831	13533.038	
02-Nov-2017	sub208	905	  1	 48	  2	 2.00	  9	  2	489.505	489.514	490.011	491.072	496.013	 1.053	13533.038	
02-Nov-2017	sub208	905	  1	 49	  2	 6.00	 12	  4	501.712	501.716	502.213	503.224	508.215	 0.995	13533.038	
02-Nov-2017	sub208	905	  1	 50	  2	 0.00	  6	  1	514.923	514.929	515.426	516.355	521.428	 0.918	13533.038	
02-Nov-2017	sub208	905	  1	 51	  2	 0.00	  6	  1	522.475	522.473	522.970	523.849	528.971	 0.862	13533.038	
02-Nov-2017	sub208	905	  1	 52	  2	 2.00	  9	  2	534.335	534.343	534.840	536.134	540.842	 1.287	13533.038	
02-Nov-2017	sub208	905	  1	 53	  2	 0.00	  7	  1	543.643	543.644	544.141	545.169	550.143	 1.018	13533.038	
02-Nov-2017	sub208	905	  1	 54	  2	 0.00	  6	  3	554.447	554.453	554.951	555.763	560.952	 0.800	13533.038	
02-Nov-2017	sub208	905	  1	 55	  2	 4.00	 12	  2	562.761	562.759	563.257	564.583	569.258	 1.318	13533.038	
02-Nov-2017	sub208	905	  1	 56	  2	 0.00	  6	  1	571.889	571.894	572.392	573.221	578.393	 0.823	13533.038	
02-Nov-2017	sub208	905	  1	 57	  2	 6.00	 12	  4	584.365	584.362	584.859	585.854	590.861	 0.980	13533.038	
02-Nov-2017	sub208	905	  1	 58	  2	 4.00	  9	  4	594.521	594.525	595.022	596.531	601.024	 1.505	13533.038	
02-Nov-2017	sub208	905	  1	 59	  2	 0.00	  7	  1	602.020	602.018	602.516	603.527	608.517	 1.003	13533.038	
02-Nov-2017	sub208	905	  1	 60	  2	 2.00	  7	  3	609.962	609.960	610.457	611.816	616.459	 1.357	13533.038	
02-Nov-2017	sub208	905	  1	 61	  2	 6.00	 12	  4	622.707	622.709	623.206	624.599	629.208	 1.384	13533.038	
02-Nov-2017	sub208	905	  1	 62	  2	 0.00	  6	  3	635.109	635.110	635.607	636.502	641.609	 0.887	13533.038	
02-Nov-2017	sub208	905	  1	 63	  2	 0.00	  6	  1	646.000	646.002	646.500	647.229	652.501	 0.722	13533.038	
02-Nov-2017	sub208	905	  1	 64	  2	 2.00	  9	  2	655.456	655.452	655.950	657.922	661.951	 1.960	13533.038	
02-Nov-2017	sub208	905	  1	 65	  2	 2.00	  7	  3	667.404	667.406	667.903	669.362	673.905	 1.446	13533.038	
02-Nov-2017	sub208	905	  1	 66	  2	 4.00	  9	  4	679.119	679.127	679.624	681.033	685.626	 1.397	13533.038	
02-Nov-2017	sub208	905	  1	 67	  2	 2.00	  9	  2	688.211	688.212	688.709	690.351	694.711	 1.640	13533.038	
02-Nov-2017	sub208	905	  1	 68	  2	 0.00	  6	  3	700.904	700.912	701.409	702.205	707.411	 0.780	13533.038	
02-Nov-2017	sub208	905	  1	 69	  2	 6.00	 12	  2	714.281	714.274	714.788	716.098	720.790	 1.296	13533.038	
02-Nov-2017	sub208	905	  1	 70	  2	 0.00	  7	  1	723.893	723.890	724.387	725.879	730.389	 1.481	13533.038	
02-Nov-2017	sub208	905	  1	 71	  2	 0.00	  7	  1	735.470	735.479	735.976	736.871	741.978	 0.884	13533.038	
02-Nov-2017	sub208	905	  1	 72	  2	 2.00	  7	  3	743.418	743.420	743.917	745.807	749.919	 1.887	13533.038	
