Date 	 Name 	 ID 	 gender 	 Trial 	 RUN 	 Decision 	 OfferType 	 Condition 	 onstrial 	 ronsfix 	 ronsdec 	 ronsdec2 	 onsjitter 	 RT 	 GameOn 	 
4-Sep-13	sub112	910	2	1	2	0	6	3	0	0.006	0.507	3.229	6.502	2.719	1679.565	
4-Sep-13	sub112	910	2	2	2	0	6	1	10.465	10.46	10.961	13.45	16.973	2.473	1679.565	
4-Sep-13	sub112	910	2	3	2	2	9	2	18.462	18.459	18.96	22.468	24.956	3.498	1679.565	
4-Sep-13	sub112	910	2	4	2	0	12	4	30.796	30.801	31.302	0	37.314	0	1679.565	
4-Sep-13	sub112	910	2	5	2	0	7	1	43.034	43.042	43.543	46.031	49.538	2.483	1679.565	
4-Sep-13	sub112	910	2	6	2	2	9	4	51.611	51.609	52.11	55.366	58.105	3.244	1679.565	
4-Sep-13	sub112	910	2	7	2	6	12	2	64.051	64.05	64.551	69.494	70.546	4.939	1679.565	
4-Sep-13	sub112	910	2	8	2	6	12	4	74.566	74.571	75.072	77.594	81.067	2.506	1679.565	
4-Sep-13	sub112	910	2	9	2	0	7	3	84.269	84.274	84.775	87.346	90.77	2.564	1679.565	
4-Sep-13	sub112	910	2	10	2	4	9	4	92.684	92.69	93.191	97.433	99.187	4.227	1679.565	
4-Sep-13	sub112	910	2	11	2	6	12	4	101.482	101.491	101.975	103.929	107.987	1.939	1679.565	
4-Sep-13	sub112	910	2	12	2	0	9	2	112.619	112.613	113.114	116.604	119.126	3.481	1679.565	
4-Sep-13	sub112	910	2	13	2	0	7	1	120.698	120.696	121.196	122.282	127.192	1.07	1679.565	
4-Sep-13	sub112	910	2	14	2	6	12	4	130.751	130.749	131.25	132.686	137.245	1.424	1679.565	
4-Sep-13	sub112	910	2	15	2	6	12	2	141.733	141.738	142.239	143.558	148.234	1.308	1679.565	
4-Sep-13	sub112	910	2	16	2	0	7	3	153.757	153.761	154.262	155.682	160.258	1.412	1679.565	
4-Sep-13	sub112	910	2	17	2	0	6	1	162.02	162.028	162.529	164.115	168.524	1.569	1679.565	
4-Sep-13	sub112	910	2	18	2	4	9	4	171.409	171.413	171.914	173.818	177.909	1.896	1679.565	
4-Sep-13	sub112	910	2	19	2	0	6	1	179.441	179.446	179.947	180.932	185.942	0.968	1679.565	
4-Sep-13	sub112	910	2	20	2	0	6	3	190.021	190.016	190.517	191.753	196.53	1.221	1679.565	
4-Sep-13	sub112	910	2	21	2	6	12	2	200.889	200.888	201.389	202.808	207.384	1.413	1679.565	
4-Sep-13	sub112	910	2	22	2	6	12	4	210.809	210.808	211.309	212.494	217.304	1.173	1679.565	
4-Sep-13	sub112	910	2	23	2	0	7	1	222.904	222.898	223.399	224.268	229.412	0.851	1679.565	
4-Sep-13	sub112	910	2	24	2	2	9	2	232.261	232.267	232.768	235.574	238.763	2.802	1679.565	
4-Sep-13	sub112	910	2	25	2	4	9	4	244.432	244.424	244.925	246.478	250.938	1.541	1679.565	
4-Sep-13	sub112	910	2	26	2	0	7	3	255.54	255.547	256.048	256.999	262.043	0.947	1679.565	
4-Sep-13	sub112	910	2	27	2	0	7	1	268.923	268.923	269.424	270.293	275.419	0.858	1679.565	
4-Sep-13	sub112	910	2	28	2	0	6	3	281.337	281.331	281.832	282.868	287.844	1.026	1679.565	
4-Sep-13	sub112	910	2	29	2	4	9	4	289.37	289.364	289.865	291.435	295.877	1.553	1679.565	
4-Sep-13	sub112	910	2	30	2	2	9	2	301.985	301.989	302.49	304.594	308.485	2.089	1679.565	
4-Sep-13	sub112	910	2	31	2	6	12	2	310.457	310.456	310.957	312.242	316.952	1.27	1679.565	
4-Sep-13	sub112	910	2	32	2	6	12	4	320.958	320.96	321.461	322.412	327.456	0.949	1679.565	
4-Sep-13	sub112	910	2	33	2	4	9	4	328.913	328.909	329.41	332.215	335.422	2.801	1679.565	
4-Sep-13	sub112	910	2	34	2	4	9	4	338.109	338.11	338.611	339.53	344.607	0.903	1679.565	
4-Sep-13	sub112	910	2	35	2	0	7	1	350.009	350.017	350.502	351.754	356.514	1.244	1679.565	
4-Sep-13	sub112	910	2	36	2	0	7	3	358.613	358.618	359.119	359.87	365.114	0.739	1679.565	
4-Sep-13	sub112	910	2	37	2	2	9	2	367.529	367.536	368.037	370.424	374.032	2.374	1679.565	
4-Sep-13	sub112	910	2	38	2	0	6	3	380.053	380.06	380.561	381.496	386.557	0.929	1679.565	
4-Sep-13	sub112	910	2	39	2	2	9	2	390.47	390.464	390.965	393.12	396.977	2.149	1679.565	
4-Sep-13	sub112	910	2	40	2	0	6	1	403.34	403.34	403.841	404.759	409.836	0.906	1679.565	
4-Sep-13	sub112	910	2	41	2	0	7	1	415.499	415.497	415.998	416.917	421.993	0.916	1679.565	
4-Sep-13	sub112	910	2	42	2	0	7	3	427.237	427.237	427.738	428.757	433.733	1	1679.565	
4-Sep-13	sub112	910	2	43	2	0	6	1	440.073	440.079	440.58	441.482	446.576	0.894	1679.565	
4-Sep-13	sub112	910	2	44	2	0	7	3	449.546	449.548	450.049	451.001	456.044	0.937	1679.565	
4-Sep-13	sub112	910	2	45	2	6	12	4	461.119	461.121	461.622	462.908	467.617	1.276	1679.565	
4-Sep-13	sub112	910	2	46	2	0	6	1	469.101	469.104	469.605	470.323	475.6	0.71	1679.565	
4-Sep-13	sub112	910	2	47	2	0	6	3	476.966	476.969	477.47	478.589	483.465	1.108	1679.565	
4-Sep-13	sub112	910	2	48	2	2	9	4	488.37	488.375	488.876	490.195	494.871	1.302	1679.565	
4-Sep-13	sub112	910	2	49	2	6	12	2	498.204	498.211	498.712	499.814	504.708	1.09	1679.565	
4-Sep-13	sub112	910	2	50	2	2	9	2	505.932	505.926	506.427	508.081	512.44	1.639	1679.565	
4-Sep-13	sub112	910	2	51	2	0	6	1	515.775	515.78	516.281	517.332	522.276	1.05	1679.565	
4-Sep-13	sub112	910	2	52	2	0	7	1	526.535	526.534	527.035	527.887	533.03	0.847	1679.565	
4-Sep-13	sub112	910	2	53	2	0	6	1	538.488	538.491	538.992	539.76	544.988	0.754	1679.565	
4-Sep-13	sub112	910	2	54	2	6	12	2	549.643	549.647	550.148	551.317	556.143	1.159	1679.565	
4-Sep-13	sub112	910	2	55	2	6	12	4	557.417	557.412	557.913	558.815	563.925	0.889	1679.565	
4-Sep-13	sub112	910	2	56	2	0	6	3	568.961	568.968	569.469	570.321	575.464	0.837	1679.565	
4-Sep-13	sub112	910	2	57	2	0	7	3	582.361	582.361	582.862	583.965	588.858	1.1	1679.565	
4-Sep-13	sub112	910	2	58	2	2	9	2	591.74	591.747	592.248	593.868	598.243	1.61	1679.565	
4-Sep-13	sub112	910	2	59	2	0	6	1	604.306	604.305	604.806	605.724	610.801	0.916	1679.565	
4-Sep-13	sub112	910	2	60	2	6	12	2	617.814	617.815	618.316	619.736	624.311	1.406	1679.565	
4-Sep-13	sub112	910	2	61	2	0	7	3	631.259	631.259	631.76	632.695	637.755	0.931	1679.565	
4-Sep-13	sub112	910	2	62	2	2	9	4	643.052	643.048	643.549	644.518	649.545	0.957	1679.565	
4-Sep-13	sub112	910	2	63	2	0	7	1	651.95	651.95	652.451	653.453	658.446	0.984	1679.565	
4-Sep-13	sub112	910	2	64	2	6	12	2	663.024	663.021	663.522	664.691	669.517	1.16	1679.565	
4-Sep-13	sub112	910	2	65	2	0	6	3	670.91	670.904	671.405	672.256	677.417	0.838	1679.565	
4-Sep-13	sub112	910	2	66	2	0	7	3	683.232	683.228	683.729	684.581	689.724	0.841	1679.565	
4-Sep-13	sub112	910	2	67	2	2	9	2	692.823	692.831	693.332	695.302	699.327	1.966	1679.565	
4-Sep-13	sub112	910	2	68	2	0	6	3	705.684	705.69	706.191	707.126	712.186	0.924	1679.565	
4-Sep-13	sub112	910	2	69	2	6	12	2	718.492	718.498	718.999	720.118	724.995	1.099	1679.565	
4-Sep-13	sub112	910	2	70	2	0	6	3	727.351	727.349	727.85	728.652	733.845	0.792	1679.565	
4-Sep-13	sub112	910	2	71	2	6	12	4	737.279	737.286	737.787	738.638	743.782	0.84	1679.565	
4-Sep-13	sub112	910	2	72	2	0	7	1	748.13	748.124	748.625	749.493	754.637	0.85	1679.565	
4-Sep-13	sub112	910	2	1	1	2	9	2	0	0.011	0.495	1.798	6.507	1.293	2559.923	
4-Sep-13	sub112	910	2	2	1	0	7	3	8.27	8.277	8.778	10.097	14.774	1.314	2559.923	
4-Sep-13	sub112	910	2	3	1	0	6	1	20.015	20.017	20.518	21.169	26.513	0.645	2559.923	
4-Sep-13	sub112	910	2	4	1	6	12	2	32.169	32.175	32.676	33.51	38.671	0.832	2559.923	
4-Sep-13	sub112	910	2	5	1	0	7	1	44.11	44.115	44.616	45.351	50.611	0.724	2559.923	
4-Sep-13	sub112	910	2	6	1	0	6	1	55.939	55.939	56.44	57.374	62.434	0.924	2559.923	
4-Sep-13	sub112	910	2	7	1	0	6	3	69.027	69.031	69.532	70.3	75.527	0.76	2559.923	
4-Sep-13	sub112	910	2	8	1	6	12	2	78.047	78.049	78.55	79.652	84.545	1.086	2559.923	
4-Sep-13	sub112	910	2	9	1	0	7	3	86.913	86.917	87.418	88.286	93.413	0.85	2559.923	
4-Sep-13	sub112	910	2	10	1	2	9	4	95.596	95.601	96.102	98.423	102.097	2.318	2559.923	
4-Sep-13	sub112	910	2	11	1	2	9	4	104.158	104.15	104.651	105.687	110.664	1.024	2559.923	
4-Sep-13	sub112	910	2	12	1	2	9	2	113.265	113.269	113.77	115.139	119.765	1.362	2559.923	
4-Sep-13	sub112	910	2	13	1	0	6	3	123.707	123.706	124.207	124.942	130.202	0.717	2559.923	
4-Sep-13	sub112	910	2	14	1	6	12	4	135.732	135.73	136.231	137.433	142.226	1.197	2559.923	
4-Sep-13	sub112	910	2	15	1	0	7	3	147.519	147.52	148.021	148.889	154.016	0.855	2559.923	
4-Sep-13	sub112	910	2	16	1	0	7	3	156.844	156.839	157.34	158.141	163.352	0.784	2559.923	
4-Sep-13	sub112	910	2	17	1	6	12	4	166.587	166.591	167.092	168.295	173.088	1.199	2559.923	
4-Sep-13	sub112	910	2	18	1	0	7	1	177.194	177.196	177.697	178.448	183.692	0.747	2559.923	
4-Sep-13	sub112	910	2	19	1	0	6	3	186.832	186.831	187.332	188.134	193.327	0.792	2559.923	
4-Sep-13	sub112	910	2	20	1	6	12	2	194.992	194.998	195.499	196.801	201.494	1.297	2559.923	
4-Sep-13	sub112	910	2	21	1	2	9	4	207.331	207.339	207.84	209.46	213.835	1.604	2559.923	
4-Sep-13	sub112	910	2	22	1	6	12	2	219.535	219.529	220.03	221.233	226.043	1.189	2559.923	
4-Sep-13	sub112	910	2	23	1	6	12	4	230.726	230.718	231.219	232.171	237.231	0.936	2559.923	
4-Sep-13	sub112	910	2	24	1	2	9	2	239.293	239.285	239.786	240.822	245.798	1.026	2559.923	
4-Sep-13	sub112	910	2	25	1	6	12	2	250.51	250.508	251.009	252.011	257.004	0.987	2559.923	
4-Sep-13	sub112	910	2	26	1	0	6	1	259.919	259.926	260.427	261.279	266.423	0.84	2559.923	
4-Sep-13	sub112	910	2	27	1	6	12	4	268.279	268.276	268.777	269.763	274.772	0.971	2559.923	
4-Sep-13	sub112	910	2	28	1	6	12	2	279.436	279.432	279.933	280.801	285.945	0.863	2559.923	
4-Sep-13	sub112	910	2	29	1	0	6	3	288.89	288.884	289.385	290.403	295.397	1.011	2559.923	
4-Sep-13	sub112	910	2	30	1	0	6	1	299.075	299.071	299.572	300.24	305.584	0.656	2559.923	
4-Sep-13	sub112	910	2	31	1	0	6	3	307.251	307.254	307.755	309.374	313.75	1.617	2559.923	
4-Sep-13	sub112	910	2	32	1	2	9	4	319.181	319.177	319.678	320.714	325.673	1.029	2559.923	
4-Sep-13	sub112	910	2	33	1	0	7	1	330.624	330.616	331.117	331.952	337.13	0.83	2559.923	
4-Sep-13	sub112	910	2	34	1	2	9	4	343.65	343.642	344.143	345.513	350.155	1.365	2559.923	
4-Sep-13	sub112	910	2	35	1	2	9	2	354.025	354.03	354.531	355.366	360.526	0.825	2559.923	
4-Sep-13	sub112	910	2	36	1	6	12	4	362.165	362.163	362.664	365.352	368.659	2.684	2559.923	
4-Sep-13	sub112	910	2	37	1	0	7	3	375.072	375.071	375.573	376.291	381.568	0.703	2559.923	
4-Sep-13	sub112	910	2	38	1	2	9	4	387.3	387.296	387.797	389.016	393.809	1.207	2559.923	
4-Sep-13	sub112	910	2	39	1	0	6	3	396.505	396.514	396.998	398.134	403.01	1.126	2559.923	
4-Sep-13	sub112	910	2	40	1	0	7	3	408.021	408.02	408.521	409.289	414.516	0.755	2559.923	
4-Sep-13	sub112	910	2	41	1	0	6	1	417.538	417.539	418.04	419.359	424.035	1.308	2559.923	
4-Sep-13	sub112	910	2	42	1	6	12	2	429.592	429.596	430.097	431.182	436.092	1.083	2559.923	
4-Sep-13	sub112	910	2	43	1	0	7	1	439.608	439.616	440.1	441.086	446.112	0.976	2559.923	
4-Sep-13	sub112	910	2	44	1	6	12	4	449.005	449.001	449.502	450.471	455.498	0.966	2559.923	
4-Sep-13	sub112	910	2	45	1	2	9	4	458.399	458.403	458.905	459.806	464.9	0.891	2559.923	
4-Sep-13	sub112	910	2	46	1	0	7	1	470.719	470.728	471.212	471.997	477.224	0.776	2559.923	
4-Sep-13	sub112	910	2	47	1	2	9	2	481.434	481.432	481.933	483.119	487.928	1.183	2559.923	
4-Sep-13	sub112	910	2	48	1	2	9	2	489.505	489.498	489.999	490.818	496.011	0.812	2559.923	
4-Sep-13	sub112	910	2	49	1	6	12	4	501.712	501.706	502.207	503.71	508.219	1.493	2559.923	
4-Sep-13	sub112	910	2	50	1	0	6	1	514.923	514.915	515.416	516.202	521.429	0.772	2559.923	
4-Sep-13	sub112	910	2	51	1	0	6	1	522.475	522.481	522.982	527.19	528.977	4.198	2559.923	
4-Sep-13	sub112	910	2	52	1	2	9	2	534.335	534.337	534.838	535.557	540.834	0.709	2559.923	
4-Sep-13	sub112	910	2	53	1	0	7	1	543.643	543.639	544.14	545.142	550.152	0.992	2559.923	
4-Sep-13	sub112	910	2	54	1	0	6	3	554.447	554.444	554.945	555.83	560.94	0.883	2559.923	
4-Sep-13	sub112	910	2	55	1	6	12	2	562.761	562.761	563.262	564.53	569.256	1.262	2559.923	
4-Sep-13	sub112	910	2	56	1	0	6	1	571.889	571.895	572.396	573.098	578.392	0.696	2559.923	
4-Sep-13	sub112	910	2	57	1	6	12	4	584.365	584.37	584.871	585.723	590.866	0.845	2559.923	
4-Sep-13	sub112	910	2	58	1	2	9	4	594.521	594.523	595.025	596.377	601.02	1.339	2559.923	
4-Sep-13	sub112	910	2	59	1	0	7	1	602.02	602.022	602.523	603.441	608.518	0.905	2559.923	
4-Sep-13	sub112	910	2	60	1	0	7	3	609.962	609.971	610.455	611.256	616.467	0.797	2559.923	
4-Sep-13	sub112	910	2	61	1	6	12	4	622.707	622.713	623.214	624.199	629.209	0.974	2559.923	
4-Sep-13	sub112	910	2	62	1	0	6	3	635.109	635.104	635.605	636.123	641.617	0.503	2559.923	
4-Sep-13	sub112	910	2	63	1	0	6	1	646	646.009	646.493	647.395	652.505	0.887	2559.923	
4-Sep-13	sub112	910	2	64	1	2	9	2	655.456	655.461	655.962	656.864	661.957	0.898	2559.923	
4-Sep-13	sub112	910	2	65	1	0	7	3	667.404	667.401	667.902	670.625	673.897	2.718	2559.923	
4-Sep-13	sub112	910	2	66	1	2	9	4	679.119	679.125	679.626	680.878	685.621	1.234	2559.923	
4-Sep-13	sub112	910	2	67	1	2	9	2	688.211	688.209	688.71	689.629	694.705	0.902	2559.923	
4-Sep-13	sub112	910	2	68	1	0	6	3	700.904	700.901	701.402	702.204	707.397	0.786	2559.923	
4-Sep-13	sub112	910	2	69	1	6	12	2	714.281	714.277	714.778	715.697	720.774	0.913	2559.923	
4-Sep-13	sub112	910	2	70	1	0	7	1	723.893	723.897	724.398	725.467	730.393	1.054	2559.923	
4-Sep-13	sub112	910	2	71	1	0	7	1	735.47	735.47	735.971	736.689	741.966	0.705	2559.923	
4-Sep-13	sub112	910	2	72	1	0	7	3	743.418	743.419	743.92	744.872	749.915	0.94	2559.923	
