Date 	 Name 	 ID 	 gender 	 Trial 	 RUN 	 Decision 	 OfferType 	 Condition 	 onstrial 	 ronsfix 	 ronsdec 	 ronsdec2 	 onsjitter 	 RT 	 GameOn 	 
07-Nov-2017	sub214	914	  1	  1	  1	 0.00	  9	  2	 0.000	 0.009	 0.507	 3.358	 6.508	 2.841	5093.106	
07-Nov-2017	sub214	914	  1	  2	  1	 0.00	  7	  3	 8.270	 8.265	 8.763	10.868	14.764	 2.091	5093.106	
07-Nov-2017	sub214	914	  1	  3	  1	 0.00	  6	  1	20.015	20.020	20.517	22.042	26.519	 1.510	5093.106	
07-Nov-2017	sub214	914	  1	  4	  1	 2.00	 12	  2	32.169	32.172	32.669	37.112	38.671	 4.429	5093.106	
07-Nov-2017	sub214	914	  1	  5	  1	 0.00	  7	  1	44.110	44.109	44.606	47.109	50.607	 2.500	5093.106	
07-Nov-2017	sub214	914	  1	  6	  1	 0.00	  6	  1	55.939	55.946	56.443	57.819	62.445	 1.375	5093.106	
07-Nov-2017	sub214	914	  1	  7	  1	 0.00	  6	  3	69.027	69.026	69.524	72.408	75.525	 2.877	5093.106	
07-Nov-2017	sub214	914	  1	  8	  1	 2.00	 12	  2	78.047	78.045	78.542	81.096	84.544	 2.547	5093.106	
07-Nov-2017	sub214	914	  1	  9	  1	 0.00	  7	  3	86.913	86.915	87.412	88.639	93.414	 1.221	5093.106	
07-Nov-2017	sub214	914	  1	 10	  1	 2.00	  9	  4	95.596	95.602	96.099	100.658	102.101	 4.549	5093.106	
07-Nov-2017	sub214	914	  1	 11	  1	 2.00	  9	  4	104.158	104.157	104.654	106.146	110.655	 1.491	5093.106	
07-Nov-2017	sub214	914	  1	 12	  1	 2.00	  9	  2	113.265	113.258	113.772	116.226	119.774	 2.452	5093.106	
07-Nov-2017	sub214	914	  1	 13	  1	 0.00	  6	  3	123.707	123.703	124.200	125.725	130.202	 1.512	5093.106	
07-Nov-2017	sub214	914	  1	 14	  1	 4.00	 12	  4	135.732	135.739	136.236	138.541	142.238	 2.291	5093.106	
07-Nov-2017	sub214	914	  1	 15	  1	 0.00	  7	  3	147.519	147.526	148.024	149.201	154.025	 1.175	5093.106	
07-Nov-2017	sub214	914	  1	 16	  1	 0.00	  7	  3	156.844	156.844	157.341	158.601	163.342	 1.250	5093.106	
07-Nov-2017	sub214	914	  1	 17	  1	 4.00	 12	  4	166.587	166.592	167.089	168.581	173.091	 1.486	5093.106	
07-Nov-2017	sub214	914	  1	 18	  1	 0.00	  7	  1	177.194	177.202	177.700	178.777	183.701	 1.075	5093.106	
07-Nov-2017	sub214	914	  1	 19	  1	 0.00	  6	  3	186.832	186.834	187.332	188.807	193.333	 1.466	5093.106	
07-Nov-2017	sub214	914	  1	 20	  1	 2.00	 12	  2	194.992	194.991	195.489	199.252	201.490	 3.749	5093.106	
07-Nov-2017	sub214	914	  1	 21	  1	 2.00	  9	  4	207.331	207.326	207.840	210.128	213.825	 2.286	5093.106	
07-Nov-2017	sub214	914	  1	 22	  1	 2.00	 12	  2	219.535	219.511	220.042	222.529	226.043	 2.483	5093.106	
07-Nov-2017	sub214	914	  1	 23	  1	 4.00	 12	  4	230.726	230.719	231.232	235.493	237.234	 4.252	5093.106	
07-Nov-2017	sub214	914	  1	 24	  1	 0.00	  9	  2	239.293	239.290	239.787	243.650	245.789	 3.849	5093.106	
07-Nov-2017	sub214	914	  1	 25	  1	 0.00	 12	  2	250.510	250.513	251.011	253.796	257.012	 2.777	5093.106	
07-Nov-2017	sub214	914	  1	 26	  1	 0.00	  6	  1	259.919	259.914	260.428	261.406	266.412	 0.976	5093.106	
07-Nov-2017	sub214	914	  1	 27	  1	 0.00	 12	  4	268.279	268.286	268.783	 0.000	274.785	 0.000	5093.106	
07-Nov-2017	sub214	914	  1	 28	  1	 0.00	 12	  2	279.436	279.443	279.941	281.018	285.942	 1.062	5093.106	
07-Nov-2017	sub214	914	  1	 29	  1	 0.00	  6	  3	288.890	288.893	289.391	290.418	295.392	 1.020	5093.106	
07-Nov-2017	sub214	914	  1	 30	  1	 0.00	  6	  1	299.075	299.072	299.570	300.415	305.571	 0.833	5093.106	
07-Nov-2017	sub214	914	  1	 31	  1	 0.00	  6	  3	307.251	307.246	307.760	308.904	313.745	 1.130	5093.106	
07-Nov-2017	sub214	914	  1	 32	  1	 2.00	  9	  4	319.181	319.182	319.680	321.354	325.681	 1.666	5093.106	
07-Nov-2017	sub214	914	  1	 33	  1	 0.00	  7	  1	330.624	330.622	331.119	332.180	337.121	 1.058	5093.106	
07-Nov-2017	sub214	914	  1	 34	  1	 2.00	  9	  4	343.650	343.653	344.150	345.758	350.151	 1.595	5093.106	
07-Nov-2017	sub214	914	  1	 35	  1	 0.00	  9	  2	354.025	354.031	354.528	356.186	360.530	 1.640	5093.106	
07-Nov-2017	sub214	914	  1	 36	  1	 0.00	 12	  4	362.165	362.171	362.668	 0.000	368.670	 0.000	5093.106	
07-Nov-2017	sub214	914	  1	 37	  1	 0.00	  7	  3	375.072	375.069	375.567	377.490	381.568	 1.913	5093.106	
07-Nov-2017	sub214	914	  1	 38	  1	 2.00	  9	  4	387.300	387.304	387.802	389.095	393.803	 1.278	5093.106	
07-Nov-2017	sub214	914	  1	 39	  1	 0.00	  6	  3	396.505	396.505	397.003	398.661	403.004	 1.645	5093.106	
07-Nov-2017	sub214	914	  1	 40	  1	 0.00	  7	  3	408.021	408.028	408.525	410.664	414.527	 2.122	5093.106	
07-Nov-2017	sub214	914	  1	 41	  1	 0.00	  6	  1	417.538	417.544	418.041	420.296	424.043	 2.246	5093.106	
07-Nov-2017	sub214	914	  1	 42	  1	 2.00	 12	  2	429.592	429.597	430.094	432.266	436.095	 2.160	5093.106	
07-Nov-2017	sub214	914	  1	 43	  1	 0.00	  7	  1	439.608	439.610	440.107	445.877	446.109	 5.755	5093.106	
07-Nov-2017	sub214	914	  1	 44	  1	 4.00	 12	  4	449.005	449.010	449.508	452.939	455.509	 3.418	5093.106	
07-Nov-2017	sub214	914	  1	 45	  1	 2.00	  9	  4	458.399	458.394	458.908	461.511	464.893	 2.594	5093.106	
07-Nov-2017	sub214	914	  1	 46	  1	 0.00	  7	  1	470.719	470.712	471.226	474.160	477.227	 2.924	5093.106	
07-Nov-2017	sub214	914	  1	 47	  1	 2.00	  9	  2	481.434	481.438	481.936	484.837	487.937	 2.893	5093.106	
07-Nov-2017	sub214	914	  1	 48	  1	 0.00	  9	  2	489.505	489.512	490.009	 0.000	496.011	 0.000	5093.106	
07-Nov-2017	sub214	914	  1	 49	  1	 4.00	 12	  4	501.712	501.714	502.211	503.886	508.213	 1.665	5093.106	
07-Nov-2017	sub214	914	  1	 50	  1	 0.00	  6	  1	514.923	514.927	515.424	516.419	521.426	 0.980	5093.106	
07-Nov-2017	sub214	914	  1	 51	  1	 0.00	  6	  1	522.475	522.470	522.968	523.730	528.969	 0.756	5093.106	
07-Nov-2017	sub214	914	  1	 52	  1	 0.00	  9	  2	534.335	534.341	534.838	537.474	540.840	 2.629	5093.106	
07-Nov-2017	sub214	914	  1	 53	  1	 0.00	  7	  1	543.643	543.641	544.139	547.471	550.140	 3.328	5093.106	
07-Nov-2017	sub214	914	  1	 54	  1	 0.00	  6	  3	554.447	554.451	554.948	556.026	560.950	 1.070	5093.106	
07-Nov-2017	sub214	914	  1	 55	  1	 2.00	 12	  2	562.761	562.757	563.254	565.641	569.255	 2.372	5093.106	
07-Nov-2017	sub214	914	  1	 56	  1	 0.00	  6	  1	571.889	571.892	572.389	575.058	578.390	 2.661	5093.106	
07-Nov-2017	sub214	914	  1	 57	  1	 4.00	 12	  4	584.365	584.359	584.873	586.365	590.858	 1.481	5093.106	
07-Nov-2017	sub214	914	  1	 58	  1	 2.00	  9	  4	594.521	594.521	595.019	596.859	601.020	 1.822	5093.106	
07-Nov-2017	sub214	914	  1	 59	  1	 0.00	  7	  1	602.020	602.015	602.529	603.789	608.514	 1.248	5093.106	
07-Nov-2017	sub214	914	  1	 60	  1	 0.00	  7	  3	609.962	609.956	610.470	611.614	616.455	 1.139	5093.106	
07-Nov-2017	sub214	914	  1	 61	  1	 4.00	 12	  4	622.707	622.705	623.203	625.093	629.204	 1.877	5093.106	
07-Nov-2017	sub214	914	  1	 62	  1	 0.00	  6	  3	635.109	635.106	635.603	638.256	641.605	 2.645	5093.106	
07-Nov-2017	sub214	914	  1	 63	  1	 0.00	  6	  1	646.000	645.998	646.496	651.221	652.497	 4.712	5093.106	
07-Nov-2017	sub214	914	  1	 64	  1	 2.00	  9	  2	655.456	655.465	655.962	661.881	661.964	 5.901	5093.106	
07-Nov-2017	sub214	914	  1	 65	  1	 0.00	  7	  3	667.404	667.401	667.899	669.258	673.900	 1.349	5093.106	
07-Nov-2017	sub214	914	  1	 66	  1	 2.00	  9	  4	679.119	679.122	679.620	681.394	685.621	 1.763	5093.106	
07-Nov-2017	sub214	914	  1	 67	  1	 2.00	  9	  2	688.211	688.208	688.705	689.716	694.706	 0.998	5093.106	
07-Nov-2017	sub214	914	  1	 68	  1	 0.00	  6	  3	700.904	700.907	701.404	704.985	707.406	 3.570	5093.106	
07-Nov-2017	sub214	914	  1	 69	  1	 4.00	 12	  2	714.281	714.286	714.783	716.126	720.785	 1.335	5093.106	
07-Nov-2017	sub214	914	  1	 70	  1	 0.00	  7	  1	723.893	723.902	724.399	725.742	730.400	 1.335	5093.106	
07-Nov-2017	sub214	914	  1	 71	  1	 0.00	  7	  1	735.470	735.473	735.971	740.580	741.972	 4.602	5093.106	
07-Nov-2017	sub214	914	  1	 72	  1	 0.00	  7	  3	743.418	743.415	743.912	745.073	749.914	 1.149	5093.106	
07-Nov-2017	sub214	914	  1	  1	  2	 0.00	  6	  3	 0.000	 0.003	 0.500	 1.661	 6.502	 1.156	5878.094	
07-Nov-2017	sub214	914	  1	  2	  2	 0.00	  6	  1	10.465	10.464	10.961	12.155	16.963	 1.182	5878.094	
07-Nov-2017	sub214	914	  1	  3	  2	 2.00	  9	  2	18.462	18.455	18.969	21.721	24.970	 2.735	5878.094	
07-Nov-2017	sub214	914	  1	  4	  2	 4.00	 12	  4	30.796	30.790	31.303	32.613	37.305	 1.295	5878.094	
07-Nov-2017	sub214	914	  1	  5	  2	 0.00	  7	  1	43.034	43.041	43.539	44.450	49.540	 0.900	5878.094	
07-Nov-2017	sub214	914	  1	  6	  2	 2.00	  9	  4	51.611	51.612	52.110	55.177	58.111	 3.064	5878.094	
07-Nov-2017	sub214	914	  1	  7	  2	 2.00	 12	  2	64.051	64.046	64.544	67.113	70.545	 2.558	5878.094	
07-Nov-2017	sub214	914	  1	  8	  2	 0.00	 12	  4	74.566	74.574	75.071	 0.000	81.073	 0.000	5878.094	
07-Nov-2017	sub214	914	  1	  9	  2	 0.00	  7	  3	84.269	84.272	84.770	86.394	90.771	 1.619	5878.094	
07-Nov-2017	sub214	914	  1	 10	  2	 2.00	  9	  4	92.684	92.678	93.192	96.972	99.177	 3.765	5878.094	
07-Nov-2017	sub214	914	  1	 11	  2	 4.00	 12	  4	101.482	101.481	101.978	105.742	107.980	 3.754	5878.094	
07-Nov-2017	sub214	914	  1	 12	  2	 0.00	  9	  2	112.619	112.622	113.119	 0.000	119.121	 0.000	5878.094	
07-Nov-2017	sub214	914	  1	 13	  2	 0.00	  7	  1	120.698	120.696	121.193	122.138	127.195	 0.931	5878.094	
07-Nov-2017	sub214	914	  1	 14	  2	 4.00	 12	  4	130.751	130.759	131.256	132.185	137.258	 0.915	5878.094	
07-Nov-2017	sub214	914	  1	 15	  2	 2.00	 12	  2	141.733	141.734	142.231	143.773	148.233	 1.532	5878.094	
07-Nov-2017	sub214	914	  1	 16	  2	 0.00	  7	  3	153.757	153.754	154.251	156.688	160.253	 2.424	5878.094	
07-Nov-2017	sub214	914	  1	 17	  2	 0.00	  6	  1	162.020	162.026	162.524	164.613	168.525	 2.087	5878.094	
07-Nov-2017	sub214	914	  1	 18	  2	 0.00	  9	  4	171.409	171.410	171.907	 0.000	177.909	 0.000	5878.094	
07-Nov-2017	sub214	914	  1	 19	  2	 0.00	  6	  1	179.441	179.434	179.948	180.827	185.950	 0.870	5878.094	
07-Nov-2017	sub214	914	  1	 20	  2	 0.00	  6	  3	190.021	190.028	190.525	191.205	196.527	 0.668	5878.094	
07-Nov-2017	sub214	914	  1	 21	  2	 2.00	 12	  2	200.889	200.887	201.384	203.158	207.386	 1.761	5878.094	
07-Nov-2017	sub214	914	  1	 22	  2	 0.00	 12	  4	210.809	210.818	211.315	 0.000	217.316	 0.000	5878.094	
07-Nov-2017	sub214	914	  1	 23	  2	 0.00	  7	  1	222.904	222.903	223.401	226.650	229.402	 3.232	5878.094	
07-Nov-2017	sub214	914	  1	 24	  2	 0.00	  9	  2	232.261	232.254	232.768	234.475	238.769	 1.705	5878.094	
07-Nov-2017	sub214	914	  1	 25	  2	 2.00	  9	  4	244.432	244.439	244.937	246.445	250.938	 1.495	5878.094	
07-Nov-2017	sub214	914	  1	 26	  2	 0.00	  7	  3	255.540	255.547	256.044	257.006	262.046	 0.958	5878.094	
07-Nov-2017	sub214	914	  1	 27	  2	 0.00	  7	  1	268.923	268.926	269.423	270.136	275.425	 0.696	5878.094	
07-Nov-2017	sub214	914	  1	 28	  2	 0.00	  6	  3	281.337	281.343	281.841	283.896	287.842	 2.054	5878.094	
07-Nov-2017	sub214	914	  1	 29	  2	 2.00	  9	  4	289.370	289.367	289.865	292.650	295.866	 2.774	5878.094	
07-Nov-2017	sub214	914	  1	 30	  2	 0.00	  9	  2	301.985	301.984	302.481	305.084	308.483	 2.589	5878.094	
07-Nov-2017	sub214	914	  1	 31	  2	 2.00	 12	  2	310.457	310.456	310.953	312.329	316.954	 1.365	5878.094	
07-Nov-2017	sub214	914	  1	 32	  2	 4.00	 12	  4	320.958	320.966	321.464	323.105	327.465	 1.638	5878.094	
07-Nov-2017	sub214	914	  1	 33	  2	 2.00	  9	  4	328.913	328.908	329.422	332.588	335.406	 3.153	5878.094	
07-Nov-2017	sub214	914	  1	 34	  2	 2.00	  9	  4	338.109	338.109	338.606	340.894	344.608	 2.271	5878.094	
07-Nov-2017	sub214	914	  1	 35	  2	 0.00	  7	  1	350.009	350.012	350.510	351.853	356.511	 1.336	5878.094	
07-Nov-2017	sub214	914	  1	 36	  2	 0.00	  7	  3	358.613	358.617	359.114	364.369	365.115	 5.243	5878.094	
07-Nov-2017	sub214	914	  1	 37	  2	 0.00	  9	  2	367.529	367.536	368.033	370.421	374.035	 2.380	5878.094	
07-Nov-2017	sub214	914	  1	 38	  2	 0.00	  6	  3	380.053	380.053	380.550	382.755	386.552	 2.190	5878.094	
07-Nov-2017	sub214	914	  1	 39	  2	 0.00	  9	  2	390.470	390.464	390.978	395.720	396.963	 4.729	5878.094	
07-Nov-2017	sub214	914	  1	 40	  2	 0.00	  6	  1	403.340	403.346	403.843	404.656	409.845	 0.808	5878.094	
07-Nov-2017	sub214	914	  1	 41	  2	 0.00	  7	  1	415.499	415.498	415.995	417.023	421.997	 1.015	5878.094	
07-Nov-2017	sub214	914	  1	 42	  2	 0.00	  7	  3	427.237	427.236	427.733	432.508	433.735	 4.765	5878.094	
07-Nov-2017	sub214	914	  1	 43	  2	 0.00	  6	  1	440.073	440.068	440.582	441.576	446.567	 0.981	5878.094	
07-Nov-2017	sub214	914	  1	 44	  2	 0.00	  7	  3	449.546	449.551	450.048	 0.000	456.050	 0.000	5878.094	
07-Nov-2017	sub214	914	  1	 45	  2	 0.00	 12	  4	461.119	461.123	461.620	 0.000	467.622	 0.000	5878.094	
07-Nov-2017	sub214	914	  1	 46	  2	 0.00	  6	  1	469.101	469.097	469.594	 0.000	475.596	 0.000	5878.094	
07-Nov-2017	sub214	914	  1	 47	  2	 0.00	  6	  3	476.966	476.972	477.469	480.785	483.471	 3.308	5878.094	
07-Nov-2017	sub214	914	  1	 48	  2	 2.00	  9	  4	488.370	488.378	488.875	490.019	494.877	 1.134	5878.094	
07-Nov-2017	sub214	914	  1	 49	  2	 2.00	 12	  2	498.204	498.209	498.707	500.282	504.708	 1.573	5878.094	
07-Nov-2017	sub214	914	  1	 50	  2	 0.00	  9	  2	505.932	505.935	506.432	508.521	512.434	 2.072	5878.094	
07-Nov-2017	sub214	914	  1	 51	  2	 0.00	  6	  1	515.775	515.783	516.280	 0.000	522.281	 0.000	5878.094	
07-Nov-2017	sub214	914	  1	 52	  2	 0.00	  7	  1	526.535	526.542	527.040	527.902	533.041	 0.856	5878.094	
07-Nov-2017	sub214	914	  1	 53	  2	 0.00	  6	  1	538.488	538.495	538.993	543.685	544.994	 4.678	5878.094	
07-Nov-2017	sub214	914	  1	 54	  2	 2.00	 12	  2	549.643	549.636	550.150	551.493	556.152	 1.328	5878.094	
07-Nov-2017	sub214	914	  1	 55	  2	 4.00	 12	  4	557.417	557.412	557.926	560.926	563.911	 2.985	5878.094	
07-Nov-2017	sub214	914	  1	 56	  2	 0.00	  6	  3	568.961	568.967	569.464	570.509	575.466	 1.037	5878.094	
07-Nov-2017	sub214	914	  1	 57	  2	 0.00	  7	  3	582.361	582.363	582.860	583.689	588.862	 0.818	5878.094	
07-Nov-2017	sub214	914	  1	 58	  2	 0.00	  9	  2	591.740	591.746	592.244	593.404	598.245	 1.146	5878.094	
07-Nov-2017	sub214	914	  1	 59	  2	 0.00	  6	  1	604.306	604.313	604.810	 0.000	610.812	 0.000	5878.094	
07-Nov-2017	sub214	914	  1	 60	  2	 2.00	 12	  2	617.814	617.808	618.322	619.399	624.307	 1.067	5878.094	
07-Nov-2017	sub214	914	  1	 61	  2	 0.00	  7	  3	631.259	631.253	631.767	632.662	637.752	 0.886	5878.094	
07-Nov-2017	sub214	914	  1	 62	  2	 0.00	  9	  4	643.052	643.057	643.555	646.705	649.556	 3.145	5878.094	
07-Nov-2017	sub214	914	  1	 63	  2	 0.00	  7	  1	651.950	651.943	652.457	653.270	658.459	 0.803	5878.094	
07-Nov-2017	sub214	914	  1	 64	  2	 2.00	 12	  2	663.024	663.018	663.532	665.538	669.517	 1.991	5878.094	
07-Nov-2017	sub214	914	  1	 65	  2	 0.00	  6	  3	670.910	670.910	671.407	672.286	677.408	 0.868	5878.094	
07-Nov-2017	sub214	914	  1	 66	  2	 0.00	  7	  3	683.232	683.227	683.725	684.603	689.726	 0.862	5878.094	
07-Nov-2017	sub214	914	  1	 67	  2	 0.00	  9	  2	692.823	692.827	693.324	 0.000	699.325	 0.000	5878.094	
07-Nov-2017	sub214	914	  1	 68	  2	 0.00	  6	  3	705.684	705.692	706.189	707.134	712.190	 0.941	5878.094	
07-Nov-2017	sub214	914	  1	 69	  2	 2.00	 12	  2	718.492	718.490	718.988	722.403	724.989	 3.406	5878.094	
07-Nov-2017	sub214	914	  1	 70	  2	 0.00	  6	  3	727.351	727.360	727.857	731.057	733.859	 3.184	5878.094	
07-Nov-2017	sub214	914	  1	 71	  2	 4.00	 12	  4	737.279	737.274	737.788	739.015	743.773	 1.213	5878.094	
07-Nov-2017	sub214	914	  1	 72	  2	 0.00	  7	  1	748.130	748.133	748.630	 0.000	754.632	 0.000	5878.094	
