Date 	 Name 	 ID 	 gender 	 Trial 	 RUN 	 Decision 	 OfferType 	 Condition 	 onstrial 	 ronsfix 	 ronsdec 	 ronsdec2 	 onsjitter 	 RT 	 GameOn 	 
06-Sep-2013	sub122	922	  2	  1	  1	 2.00	  9	  2	 0.000	 0.002	 0.503	 3.359	 6.498	 2.843	24870.003	
06-Sep-2013	sub122	922	  2	  2	  1	 2.00	  7	  3	 8.270	 8.269	 8.770	12.176	14.765	 3.400	24870.003	
06-Sep-2013	sub122	922	  2	  3	  1	 0.00	  6	  1	20.015	20.009	20.510	22.547	26.522	 2.021	24870.003	
06-Sep-2013	sub122	922	  2	  4	  1	 6.00	 12	  2	32.169	32.166	32.667	36.458	38.662	 3.783	24870.003	
06-Sep-2013	sub122	922	  2	  5	  1	 0.00	  7	  1	44.110	44.107	44.608	48.064	50.602	 3.443	24870.003	
06-Sep-2013	sub122	922	  2	  6	  1	 0.00	  6	  1	55.939	55.947	56.448	58.001	62.443	 1.546	24870.003	
06-Sep-2013	sub122	922	  2	  7	  1	 0.00	  6	  3	69.027	69.023	69.524	71.929	75.536	 2.391	24870.003	
06-Sep-2013	sub122	922	  2	  8	  1	 6.00	 12	  2	78.047	78.040	78.541	81.798	84.554	 3.245	24870.003	
06-Sep-2013	sub122	922	  2	  9	  1	 2.00	  7	  3	86.913	86.908	87.409	90.031	93.421	 2.617	24870.003	
06-Sep-2013	sub122	922	  2	 10	  1	 4.00	  9	  4	95.596	95.592	96.093	99.700	102.105	 3.605	24870.003	
06-Sep-2013	sub122	922	  2	 11	  1	 4.00	  9	  4	104.158	104.159	104.660	107.098	110.655	 2.422	24870.003	
06-Sep-2013	sub122	922	  2	 12	  1	 4.00	  9	  2	113.265	113.260	113.761	117.502	119.773	 3.737	24870.003	
06-Sep-2013	sub122	922	  2	 13	  1	 0.00	  6	  3	123.707	123.715	124.216	125.769	130.211	 1.547	24870.003	
06-Sep-2013	sub122	922	  2	 14	  1	 6.00	 12	  4	135.732	135.738	136.239	137.676	142.235	 1.419	24870.003	
06-Sep-2013	sub122	922	  2	 15	  1	 2.00	  7	  3	147.519	147.511	148.012	149.916	154.025	 1.902	24870.003	
06-Sep-2013	sub122	922	  2	 16	  1	 2.00	  7	  3	156.844	156.847	157.348	158.851	163.343	 1.486	24870.003	
06-Sep-2013	sub122	922	  2	 17	  1	 6.00	 12	  4	166.587	166.583	167.084	169.088	173.096	 1.998	24870.003	
06-Sep-2013	sub122	922	  2	 18	  1	 2.00	  7	  1	177.194	177.187	177.688	180.460	183.700	 2.770	24870.003	
06-Sep-2013	sub122	922	  2	 19	  1	 0.00	  6	  3	186.832	186.840	187.341	188.476	193.336	 1.133	24870.003	
06-Sep-2013	sub122	922	  2	 20	  1	 6.00	 12	  2	194.992	194.989	195.490	198.045	201.485	 2.544	24870.003	
06-Sep-2013	sub122	922	  2	 21	  1	 4.00	  9	  4	207.331	207.330	207.831	210.169	213.827	 2.331	24870.003	
06-Sep-2013	sub122	922	  2	 22	  1	 6.00	 12	  2	219.535	219.538	220.039	221.091	226.034	 1.043	24870.003	
06-Sep-2013	sub122	922	  2	 23	  1	 6.00	 12	  4	230.726	230.727	231.228	232.063	237.223	 0.822	24870.003	
06-Sep-2013	sub122	922	  2	 24	  1	 4.00	  9	  2	239.293	239.294	239.795	241.431	245.790	 1.632	24870.003	
06-Sep-2013	sub122	922	  2	 25	  1	 6.00	 12	  2	250.510	250.516	251.017	252.086	257.012	 1.065	24870.003	
06-Sep-2013	sub122	922	  2	 26	  1	 0.00	  6	  1	259.919	259.918	260.419	261.488	266.414	 1.055	24870.003	
06-Sep-2013	sub122	922	  2	 27	  1	 6.00	 12	  4	268.279	268.285	268.786	271.257	274.781	 2.457	24870.003	
06-Sep-2013	sub122	922	  2	 28	  1	 4.00	 12	  2	279.436	279.440	279.941	282.596	285.936	 2.653	24870.003	
06-Sep-2013	sub122	922	  2	 29	  1	 6.00	  6	  3	288.890	288.892	289.393	290.863	295.388	 1.457	24870.003	
06-Sep-2013	sub122	922	  2	 30	  1	 0.00	  6	  1	299.075	299.079	299.580	301.200	305.575	 1.614	24870.003	
06-Sep-2013	sub122	922	  2	 31	  1	 0.00	  6	  3	307.251	307.245	307.746	308.898	313.758	 1.144	24870.003	
06-Sep-2013	sub122	922	  2	 32	  1	 4.00	  9	  4	319.181	319.186	319.687	321.757	325.682	 2.067	24870.003	
06-Sep-2013	sub122	922	  2	 33	  1	 2.00	  7	  1	330.624	330.625	331.126	332.529	337.121	 1.388	24870.003	
06-Sep-2013	sub122	922	  2	 34	  1	 4.00	  9	  4	343.650	343.651	344.152	347.375	350.147	 3.210	24870.003	
06-Sep-2013	sub122	922	  2	 35	  1	 2.00	  9	  2	354.025	354.021	354.522	357.278	360.517	 2.744	24870.003	
06-Sep-2013	sub122	922	  2	 36	  1	 6.00	 12	  4	362.165	362.171	362.672	364.308	368.667	 1.634	24870.003	
06-Sep-2013	sub122	922	  2	 37	  1	 2.00	  7	  3	375.072	375.080	375.581	379.004	381.576	 3.413	24870.003	
06-Sep-2013	sub122	922	  2	 38	  1	 4.00	  9	  4	387.300	387.304	387.805	389.625	393.800	 1.805	24870.003	
06-Sep-2013	sub122	922	  2	 39	  1	 0.00	  6	  3	396.505	396.505	397.006	398.510	403.002	 1.500	24870.003	
06-Sep-2013	sub122	922	  2	 40	  1	 2.00	  7	  3	408.021	408.029	408.530	410.266	414.525	 1.721	24870.003	
06-Sep-2013	sub122	922	  2	 41	  1	 0.00	  6	  1	417.538	417.531	418.032	419.017	424.044	 0.971	24870.003	
06-Sep-2013	sub122	922	  2	 42	  1	 6.00	 12	  2	429.592	429.588	430.089	432.594	436.101	 2.498	24870.003	
06-Sep-2013	sub122	922	  2	 43	  1	 0.00	  7	  1	439.608	439.608	440.109	442.681	446.104	 2.557	24870.003	
06-Sep-2013	sub122	922	  2	 44	  1	 6.00	 12	  4	449.005	449.010	449.511	450.680	455.506	 1.163	24870.003	
06-Sep-2013	sub122	922	  2	 45	  1	 4.00	  9	  4	458.399	458.395	458.896	461.134	464.908	 2.226	24870.003	
06-Sep-2013	sub122	922	  2	 46	  1	 0.00	  7	  1	470.719	470.720	471.221	473.325	477.215	 2.102	24870.003	
06-Sep-2013	sub122	922	  2	 47	  1	 2.00	  9	  2	481.434	481.441	481.942	483.895	487.937	 1.948	24870.003	
06-Sep-2013	sub122	922	  2	 48	  1	 2.00	  9	  2	489.505	489.507	490.008	492.713	496.003	 2.690	24870.003	
06-Sep-2013	sub122	922	  2	 49	  1	 6.00	 12	  4	501.712	501.714	502.215	503.468	508.210	 1.243	24870.003	
06-Sep-2013	sub122	922	  2	 50	  1	 0.00	  6	  1	514.923	514.924	515.425	516.844	521.420	 1.417	24870.003	
06-Sep-2013	sub122	922	  2	 51	  1	 0.00	  6	  1	522.475	522.472	522.973	523.958	528.968	 0.981	24870.003	
06-Sep-2013	sub122	922	  2	 52	  1	 2.00	  9	  2	534.335	534.329	534.830	536.383	540.842	 1.540	24870.003	
06-Sep-2013	sub122	922	  2	 53	  1	 0.00	  7	  1	543.643	543.648	544.149	546.036	550.144	 1.878	24870.003	
06-Sep-2013	sub122	922	  2	 54	  1	 0.00	  6	  3	554.447	554.452	554.953	556.239	560.948	 1.273	24870.003	
06-Sep-2013	sub122	922	  2	 55	  1	 4.00	 12	  2	562.761	562.769	563.270	566.843	569.265	 3.564	24870.003	
06-Sep-2013	sub122	922	  2	 56	  1	 0.00	  6	  1	571.889	571.887	572.388	574.425	578.383	 2.022	24870.003	
06-Sep-2013	sub122	922	  2	 57	  1	 6.00	 12	  4	584.365	584.362	584.863	586.248	590.858	 1.380	24870.003	
06-Sep-2013	sub122	922	  2	 58	  1	 4.00	  9	  4	594.521	594.515	595.016	597.321	601.028	 2.298	24870.003	
06-Sep-2013	sub122	922	  2	 59	  1	 2.00	  7	  1	602.020	602.013	602.514	604.034	608.526	 1.512	24870.003	
06-Sep-2013	sub122	922	  2	 60	  1	 2.00	  7	  3	609.962	609.962	610.463	612.167	616.458	 1.699	24870.003	
06-Sep-2013	sub122	922	  2	 61	  1	 6.00	 12	  4	622.707	622.704	623.205	624.424	629.200	 1.205	24870.003	
06-Sep-2013	sub122	922	  2	 62	  1	 0.00	  6	  3	635.109	635.112	635.613	637.701	641.609	 2.077	24870.003	
06-Sep-2013	sub122	922	  2	 63	  1	 0.00	  6	  1	646.000	646.001	646.502	648.839	652.497	 2.333	24870.003	
06-Sep-2013	sub122	922	  2	 64	  1	 2.00	  9	  2	655.456	655.452	655.953	658.776	661.949	 2.809	24870.003	
06-Sep-2013	sub122	922	  2	 65	  1	 2.00	  7	  3	667.404	667.410	667.911	670.466	673.906	 2.539	24870.003	
06-Sep-2013	sub122	922	  2	 66	  1	 4.00	  9	  4	679.119	679.116	679.617	681.521	685.612	 1.889	24870.003	
06-Sep-2013	sub122	922	  2	 67	  1	 2.00	  9	  2	688.211	688.218	688.719	691.491	694.714	 2.755	24870.003	
06-Sep-2013	sub122	922	  2	 68	  1	 0.00	  6	  3	700.904	700.910	701.411	702.463	707.406	 1.040	24870.003	
06-Sep-2013	sub122	922	  2	 69	  1	 4.00	 12	  2	714.281	714.286	714.787	717.943	720.782	 3.151	24870.003	
06-Sep-2013	sub122	922	  2	 70	  1	 0.00	  7	  1	723.893	723.888	724.389	726.744	730.401	 2.349	24870.003	
06-Sep-2013	sub122	922	  2	 71	  1	 0.00	  7	  1	735.470	735.478	735.962	737.265	741.974	 1.296	24870.003	
06-Sep-2013	sub122	922	  2	 72	  1	 2.00	  7	  3	743.418	743.410	743.911	745.247	749.923	 1.323	24870.003	
06-Sep-2013	sub122	922	  2	  1	  2	 0.00	  6	  3	 0.000	 0.011	 0.495	 1.797	 6.507	 1.290	25666.893	
06-Sep-2013	sub122	922	  2	  2	  2	 0.00	  6	  1	10.465	10.464	10.965	11.951	16.961	 0.971	25666.893	
06-Sep-2013	sub122	922	  2	  3	  2	 2.00	  9	  2	18.462	18.464	18.965	21.219	24.960	 2.252	25666.893	
06-Sep-2013	sub122	922	  2	  4	  2	 6.00	 12	  4	30.796	30.805	31.289	32.692	37.301	 1.392	25666.893	
06-Sep-2013	sub122	922	  2	  5	  2	 0.00	  7	  1	43.034	43.029	43.530	46.269	49.542	 2.735	25666.893	
06-Sep-2013	sub122	922	  2	  6	  2	 4.00	  9	  4	51.611	51.613	52.114	54.251	58.109	 2.119	25666.893	
06-Sep-2013	sub122	922	  2	  7	  2	 6.00	 12	  2	64.051	64.054	64.555	68.112	70.550	 3.550	25666.893	
06-Sep-2013	sub122	922	  2	  8	  2	 6.00	 12	  4	74.566	74.575	75.059	76.162	81.071	 1.094	25666.893	
06-Sep-2013	sub122	922	  2	  9	  2	 2.00	  7	  3	84.269	84.278	84.762	86.716	90.774	 1.943	25666.893	
06-Sep-2013	sub122	922	  2	 10	  2	 4.00	  9	  4	92.684	92.677	93.178	95.400	99.191	 2.206	25666.893	
06-Sep-2013	sub122	922	  2	 11	  2	 6.00	 12	  4	101.482	101.478	101.979	102.865	107.975	 0.878	25666.893	
06-Sep-2013	sub122	922	  2	 12	  2	 2.00	  9	  2	112.619	112.617	113.118	115.222	119.113	 2.091	25666.893	
06-Sep-2013	sub122	922	  2	 13	  2	 0.00	  7	  1	120.698	120.700	121.201	122.988	127.196	 1.784	25666.893	
06-Sep-2013	sub122	922	  2	 14	  2	 6.00	 12	  4	130.751	130.753	131.254	132.189	137.249	 0.923	25666.893	
06-Sep-2013	sub122	922	  2	 15	  2	 6.00	 12	  2	141.733	141.742	142.226	144.130	148.238	 1.895	25666.893	
06-Sep-2013	sub122	922	  2	 16	  2	 2.00	  7	  3	153.757	153.766	154.250	156.621	160.262	 2.367	25666.893	
06-Sep-2013	sub122	922	  2	 17	  2	 0.00	  6	  1	162.020	162.015	162.516	164.086	168.528	 1.565	25666.893	
06-Sep-2013	sub122	922	  2	 18	  2	 4.00	  9	  4	171.409	171.417	171.901	175.525	177.913	 3.620	25666.893	
06-Sep-2013	sub122	922	  2	 19	  2	 0.00	  6	  1	179.441	179.450	179.934	181.738	185.946	 1.787	25666.893	
06-Sep-2013	sub122	922	  2	 20	  2	 0.00	  6	  3	190.021	190.021	190.522	191.557	196.517	 1.031	25666.893	
06-Sep-2013	sub122	922	  2	 21	  2	 4.00	 12	  2	200.889	200.892	201.393	203.481	207.389	 2.080	25666.893	
06-Sep-2013	sub122	922	  2	 22	  2	 4.00	 12	  4	210.809	210.812	211.313	215.171	217.308	 3.840	25666.893	
06-Sep-2013	sub122	922	  2	 23	  2	 0.00	  7	  1	222.904	222.902	223.403	225.708	229.416	 2.293	25666.893	
06-Sep-2013	sub122	922	  2	 24	  2	 2.00	  9	  2	232.261	232.254	232.756	237.548	238.767	 4.789	25666.893	
06-Sep-2013	sub122	922	  2	 25	  2	 2.00	  9	  4	244.432	244.429	244.930	247.685	250.925	 2.743	25666.893	
06-Sep-2013	sub122	922	  2	 26	  2	 0.00	  7	  3	255.540	255.534	256.035	258.156	262.047	 2.110	25666.893	
06-Sep-2013	sub122	922	  2	 27	  2	 0.00	  7	  1	268.923	268.927	269.428	270.764	275.424	 1.333	25666.893	
06-Sep-2013	sub122	922	  2	 28	  2	 0.00	  6	  3	281.337	281.335	281.836	284.174	287.831	 2.324	25666.893	
06-Sep-2013	sub122	922	  2	 29	  2	 2.00	  9	  4	289.370	289.368	289.869	292.524	295.864	 2.652	25666.893	
06-Sep-2013	sub122	922	  2	 30	  2	 2.00	  9	  2	301.985	301.993	302.494	306.552	308.489	 4.043	25666.893	
06-Sep-2013	sub122	922	  2	 31	  2	 0.00	 12	  2	310.457	310.460	310.961	314.718	316.956	 3.752	25666.893	
06-Sep-2013	sub122	922	  2	 32	  2	 0.00	 12	  4	320.958	320.964	321.465	323.619	327.460	 2.144	25666.893	
06-Sep-2013	sub122	922	  2	 33	  2	 2.00	  9	  4	328.913	328.913	329.414	332.487	335.409	 3.059	25666.893	
06-Sep-2013	sub122	922	  2	 34	  2	 2.00	  9	  4	338.109	338.115	338.616	342.523	344.611	 3.897	25666.893	
06-Sep-2013	sub122	922	  2	 35	  2	 0.00	  7	  1	350.009	350.005	350.506	351.842	356.518	 1.319	25666.893	
06-Sep-2013	sub122	922	  2	 36	  2	 0.00	  7	  3	358.613	358.622	359.106	360.258	365.118	 1.135	25666.893	
06-Sep-2013	sub122	922	  2	 37	  2	 2.00	  9	  2	367.529	367.523	368.024	371.030	374.036	 2.993	25666.893	
06-Sep-2013	sub122	922	  2	 38	  2	 0.00	  6	  3	380.053	380.047	380.548	381.567	386.561	 1.004	25666.893	
06-Sep-2013	sub122	922	  2	 39	  2	 2.00	  9	  2	390.470	390.468	390.969	394.142	396.965	 3.168	25666.893	
06-Sep-2013	sub122	922	  2	 40	  2	 0.00	  6	  1	403.340	403.344	403.845	404.680	409.840	 0.820	25666.893	
06-Sep-2013	sub122	922	  2	 41	  2	 2.00	  7	  1	415.499	415.501	416.002	420.494	421.997	 4.486	25666.893	
06-Sep-2013	sub122	922	  2	 42	  2	 0.00	  7	  3	427.237	427.241	427.742	428.778	433.738	 1.019	25666.893	
06-Sep-2013	sub122	922	  2	 43	  2	 0.00	  6	  1	440.073	440.066	440.567	441.369	446.580	 0.785	25666.893	
06-Sep-2013	sub122	922	  2	 44	  2	 2.00	  7	  3	449.546	449.552	450.053	452.124	456.049	 2.060	25666.893	
06-Sep-2013	sub122	922	  2	 45	  2	 4.00	 12	  4	461.119	461.125	461.626	467.036	467.621	 5.407	25666.893	
06-Sep-2013	sub122	922	  2	 46	  2	 0.00	  6	  1	469.101	469.108	469.609	470.928	475.604	 1.312	25666.893	
06-Sep-2013	sub122	922	  2	 47	  2	 0.00	  6	  3	476.966	476.973	477.474	478.226	483.470	 0.735	25666.893	
06-Sep-2013	sub122	922	  2	 48	  2	 2.00	  9	  4	488.370	488.362	488.863	491.251	494.876	 2.386	25666.893	
06-Sep-2013	sub122	922	  2	 49	  2	 0.00	 12	  2	498.204	498.199	498.700	 0.000	504.711	 0.000	25666.893	
06-Sep-2013	sub122	922	  2	 50	  2	 0.00	  9	  2	505.932	505.931	506.432	509.037	512.427	 2.593	25666.893	
06-Sep-2013	sub122	922	  2	 51	  2	 0.00	  6	  1	515.775	515.784	516.268	516.986	522.280	 0.709	25666.893	
06-Sep-2013	sub122	922	  2	 52	  2	 0.00	  7	  1	526.535	526.538	527.039	528.108	533.034	 1.058	25666.893	
06-Sep-2013	sub122	922	  2	 53	  2	 0.00	  6	  1	538.488	538.495	538.996	539.798	544.992	 0.797	25666.893	
06-Sep-2013	sub122	922	  2	 54	  2	 4.00	 12	  2	549.643	549.651	550.152	551.838	556.147	 1.681	25666.893	
06-Sep-2013	sub122	922	  2	 55	  2	 4.00	 12	  4	557.417	557.416	557.917	559.871	563.912	 1.940	25666.893	
06-Sep-2013	sub122	922	  2	 56	  2	 0.00	  6	  3	568.961	568.956	569.457	570.275	575.469	 0.816	25666.893	
06-Sep-2013	sub122	922	  2	 57	  2	 2.00	  7	  3	582.361	582.366	582.867	585.305	588.862	 2.430	25666.893	
06-Sep-2013	sub122	922	  2	 58	  2	 2.00	  9	  2	591.740	591.734	592.235	595.291	598.247	 3.054	25666.893	
06-Sep-2013	sub122	922	  2	 59	  2	 2.00	  6	  1	604.306	604.309	604.810	607.682	610.805	 2.863	25666.893	
06-Sep-2013	sub122	922	  2	 60	  2	 0.00	 12	  2	617.814	617.819	618.320	619.606	624.316	 1.281	25666.893	
06-Sep-2013	sub122	922	  2	 61	  2	 2.00	  7	  3	631.259	631.263	631.764	635.721	637.759	 3.941	25666.893	
06-Sep-2013	sub122	922	  2	 62	  2	 2.00	  9	  4	643.052	643.053	643.554	645.407	649.549	 1.847	25666.893	
06-Sep-2013	sub122	922	  2	 63	  2	 2.00	  7	  1	651.950	651.954	652.455	654.308	658.450	 1.842	25666.893	
06-Sep-2013	sub122	922	  2	 64	  2	 0.00	 12	  2	663.024	663.026	663.527	664.679	669.522	 1.138	25666.893	
06-Sep-2013	sub122	922	  2	 65	  2	 6.00	  6	  3	670.910	670.908	671.409	673.563	677.404	 2.136	25666.893	
06-Sep-2013	sub122	922	  2	 66	  2	 4.00	  7	  3	683.232	683.232	683.733	687.040	689.729	 3.292	25666.893	
06-Sep-2013	sub122	922	  2	 67	  2	 2.00	  9	  2	692.823	692.818	693.319	694.972	699.331	 1.634	25666.893	
06-Sep-2013	sub122	922	  2	 68	  2	 6.00	  6	  3	705.684	705.677	706.178	709.618	712.190	 3.423	25666.893	
06-Sep-2013	sub122	922	  2	 69	  2	 0.00	 12	  2	718.492	718.486	718.987	720.540	724.999	 1.534	25666.893	
06-Sep-2013	sub122	922	  2	 70	  2	 2.00	  6	  3	727.351	727.353	727.854	730.509	733.850	 2.643	25666.893	
06-Sep-2013	sub122	922	  2	 71	  2	 0.00	 12	  4	737.279	737.273	737.774	739.010	743.786	 1.219	25666.893	
06-Sep-2013	sub122	922	  2	 72	  2	 2.00	  7	  1	748.130	748.128	748.629	752.152	754.624	 3.516	25666.893	
