Date 	 Name 	 ID 	 gender 	 Trial 	 RUN 	 Decision 	 OfferType 	 Condition 	 onstrial 	 ronsfix 	 ronsdec 	 ronsdec2 	 onsjitter 	 RT 	 GameOn 	 
28-Dec-2017	sub235	935	  1	  1	  1	 0.00	  6	  3	 0.000	 0.018	 0.499	 3.499	 6.500	 2.993	9324.694	
28-Dec-2017	sub235	935	  1	  2	  1	 0.00	  6	  1	10.465	10.462	10.960	14.673	16.961	 3.707	9324.694	
28-Dec-2017	sub235	935	  1	  3	  1	 2.00	  9	  2	18.462	18.470	18.967	21.918	24.969	 2.940	9324.694	
28-Dec-2017	sub235	935	  1	  4	  1	 4.00	 12	  4	30.796	30.804	31.302	34.435	37.303	 3.116	9324.694	
28-Dec-2017	sub235	935	  1	  5	  1	 0.00	  7	  1	43.034	43.039	43.537	45.178	49.538	 1.626	9324.694	
28-Dec-2017	sub235	935	  1	  6	  1	 2.00	  9	  4	51.611	51.611	52.108	56.302	58.110	 4.190	9324.694	
28-Dec-2017	sub235	935	  1	  7	  1	 2.00	 12	  2	64.051	64.045	64.559	68.438	70.544	 3.866	9324.694	
28-Dec-2017	sub235	935	  1	  8	  1	 4.00	 12	  4	74.566	74.572	75.070	80.275	81.071	 5.188	9324.694	
28-Dec-2017	sub235	935	  1	  9	  1	 2.00	  7	  3	84.269	84.271	84.768	87.819	90.770	 3.048	9324.694	
28-Dec-2017	sub235	935	  1	 10	  1	 2.00	  9	  4	92.684	92.693	93.190	97.898	99.192	 4.706	9324.694	
28-Dec-2017	sub235	935	  1	 11	  1	 4.00	 12	  4	101.482	101.479	101.977	103.916	107.978	 1.928	9324.694	
28-Dec-2017	sub235	935	  1	 12	  1	 0.00	  9	  2	112.619	112.620	113.118	117.660	119.119	 4.538	9324.694	
28-Dec-2017	sub235	935	  1	 13	  1	 0.00	  7	  1	120.698	120.694	121.191	122.369	127.193	 1.168	9324.694	
28-Dec-2017	sub235	935	  1	 14	  1	 4.00	 12	  4	130.751	130.757	131.255	134.736	137.256	 3.465	9324.694	
28-Dec-2017	sub235	935	  1	 15	  1	 2.00	 12	  2	141.733	141.732	142.230	145.131	148.231	 2.897	9324.694	
28-Dec-2017	sub235	935	  1	 16	  1	 0.00	  7	  3	153.757	153.752	154.249	158.394	160.251	 4.134	9324.694	
28-Dec-2017	sub235	935	  1	 17	  1	 0.00	  6	  1	162.020	162.025	162.522	164.396	168.524	 1.871	9324.694	
28-Dec-2017	sub235	935	  1	 18	  1	 2.00	  9	  4	171.409	171.408	171.906	174.591	177.907	 2.669	9324.694	
28-Dec-2017	sub235	935	  1	 19	  1	 0.00	  6	  1	179.441	179.449	179.946	183.245	185.948	 3.292	9324.694	
28-Dec-2017	sub235	935	  1	 20	  1	 0.00	  6	  3	190.021	190.026	190.524	194.403	196.525	 3.874	9324.694	
28-Dec-2017	sub235	935	  1	 21	  1	 2.00	 12	  2	200.889	200.885	201.383	204.549	207.384	 3.150	9324.694	
28-Dec-2017	sub235	935	  1	 22	  1	 4.00	 12	  4	210.809	210.816	211.313	212.739	217.315	 1.412	9324.694	
28-Dec-2017	sub235	935	  1	 23	  1	 0.00	  7	  1	222.904	222.902	223.399	225.090	229.401	 1.685	9324.694	
28-Dec-2017	sub235	935	  1	 24	  1	 2.00	  9	  2	232.261	232.269	232.766	237.657	238.768	 4.878	9324.694	
28-Dec-2017	sub235	935	  1	 25	  1	 2.00	  9	  4	244.432	244.437	244.935	247.919	250.936	 2.980	9324.694	
28-Dec-2017	sub235	935	  1	 26	  1	 4.00	  7	  3	255.540	255.545	256.043	257.949	262.044	 1.896	9324.694	
28-Dec-2017	sub235	935	  1	 27	  1	 0.00	  7	  1	268.923	268.924	269.422	271.925	275.423	 2.486	9324.694	
28-Dec-2017	sub235	935	  1	 28	  1	 0.00	  6	  3	281.337	281.342	281.839	283.348	287.840	 1.499	9324.694	
28-Dec-2017	sub235	935	  1	 29	  1	 2.00	  9	  4	289.370	289.366	289.863	295.102	295.865	 5.235	9324.694	
28-Dec-2017	sub235	935	  1	 30	  1	 2.00	  9	  2	301.985	301.982	302.479	305.828	308.481	 3.347	9324.694	
28-Dec-2017	sub235	935	  1	 31	  1	 2.00	 12	  2	310.457	310.454	310.951	313.289	316.953	 2.323	9324.694	
28-Dec-2017	sub235	935	  1	 32	  1	 4.00	 12	  4	320.958	320.965	321.462	322.788	327.464	 1.316	9324.694	
28-Dec-2017	sub235	935	  1	 33	  1	 2.00	  9	  4	328.913	328.906	329.420	333.349	335.421	 3.918	9324.694	
28-Dec-2017	sub235	935	  1	 34	  1	 2.00	  9	  4	338.109	338.107	338.604	340.063	344.606	 1.444	9324.694	
28-Dec-2017	sub235	935	  1	 35	  1	 0.00	  7	  1	350.009	350.011	350.508	352.431	356.509	 1.909	9324.694	
28-Dec-2017	sub235	935	  1	 36	  1	 0.00	  7	  3	358.613	358.615	359.112	361.102	365.114	 1.984	9324.694	
28-Dec-2017	sub235	935	  1	 37	  1	 0.00	  9	  2	367.529	367.534	368.032	372.143	374.033	 4.105	9324.694	
28-Dec-2017	sub235	935	  1	 38	  1	 0.00	  6	  3	380.053	380.051	380.549	382.936	386.550	 2.371	9324.694	
28-Dec-2017	sub235	935	  1	 39	  1	 0.00	  9	  2	390.470	390.463	390.977	394.591	396.978	 3.607	9324.694	
28-Dec-2017	sub235	935	  1	 40	  1	 0.00	  6	  1	403.340	403.344	403.842	404.903	409.843	 1.046	9324.694	
28-Dec-2017	sub235	935	  1	 41	  1	 0.00	  7	  1	415.499	415.496	415.994	420.719	421.995	 4.717	9324.694	
28-Dec-2017	sub235	935	  1	 42	  1	 2.00	  7	  3	427.237	427.234	427.732	430.235	433.733	 2.498	9324.694	
28-Dec-2017	sub235	935	  1	 43	  1	 0.00	  6	  1	440.073	440.066	440.580	441.840	446.582	 1.250	9324.694	
28-Dec-2017	sub235	935	  1	 44	  1	 2.00	  7	  3	449.546	449.549	450.046	452.964	456.048	 2.903	9324.694	
28-Dec-2017	sub235	935	  1	 45	  1	 4.00	 12	  4	461.119	461.121	461.618	463.508	467.620	 1.875	9324.694	
28-Dec-2017	sub235	935	  1	 46	  1	 0.00	  6	  1	469.101	469.095	469.609	471.814	475.594	 2.196	9324.694	
28-Dec-2017	sub235	935	  1	 47	  1	 0.00	  6	  3	476.966	476.970	477.468	480.551	483.469	 3.073	9324.694	
28-Dec-2017	sub235	935	  1	 48	  1	 2.00	  9	  4	488.370	488.376	488.874	491.858	494.875	 2.979	9324.694	
28-Dec-2017	sub235	935	  1	 49	  1	 2.00	 12	  2	498.204	498.208	498.705	502.302	504.706	 3.595	9324.694	
28-Dec-2017	sub235	935	  1	 50	  1	 2.00	  9	  2	505.932	505.933	506.431	511.951	512.432	 5.517	9324.694	
28-Dec-2017	sub235	935	  1	 51	  1	 0.00	  6	  1	515.775	515.781	516.278	517.472	522.280	 1.191	9324.694	
28-Dec-2017	sub235	935	  1	 52	  1	 0.00	  7	  1	526.535	526.541	527.038	528.762	533.039	 1.717	9324.694	
28-Dec-2017	sub235	935	  1	 53	  1	 0.00	  6	  1	538.488	538.494	538.991	540.201	544.993	 1.196	9324.694	
28-Dec-2017	sub235	935	  1	 54	  1	 2.00	 12	  2	549.643	549.651	550.149	552.967	556.150	 2.806	9324.694	
28-Dec-2017	sub235	935	  1	 55	  1	 4.00	 12	  4	557.417	557.410	557.924	559.267	563.926	 1.327	9324.694	
28-Dec-2017	sub235	935	  1	 56	  1	 0.00	  6	  3	568.961	568.965	569.463	571.369	575.464	 1.891	9324.694	
28-Dec-2017	sub235	935	  1	 57	  1	 2.00	  7	  3	582.361	582.361	582.858	587.301	588.860	 4.434	9324.694	
28-Dec-2017	sub235	935	  1	 58	  1	 0.00	  9	  2	591.740	591.745	592.242	593.850	598.243	 1.600	9324.694	
28-Dec-2017	sub235	935	  1	 59	  1	 0.00	  6	  1	604.306	604.311	604.809	605.919	610.810	 1.105	9324.694	
28-Dec-2017	sub235	935	  1	 60	  1	 2.00	 12	  2	617.814	617.823	618.320	620.326	624.322	 2.000	9324.694	
28-Dec-2017	sub235	935	  1	 61	  1	 2.00	  7	  3	631.259	631.252	631.766	634.186	637.767	 2.403	9324.694	
28-Dec-2017	sub235	935	  1	 62	  1	 2.00	  9	  4	643.052	643.056	643.553	646.487	649.554	 2.919	9324.694	
28-Dec-2017	sub235	935	  1	 63	  1	 0.00	  7	  1	651.950	651.958	652.456	655.357	658.457	 2.887	9324.694	
28-Dec-2017	sub235	935	  1	 64	  1	 2.00	 12	  2	663.024	663.016	663.530	665.503	669.532	 1.965	9324.694	
28-Dec-2017	sub235	935	  1	 65	  1	 0.00	  6	  3	670.910	670.908	671.405	672.814	677.407	 1.402	9324.694	
28-Dec-2017	sub235	935	  1	 66	  1	 0.00	  7	  3	683.232	683.226	683.740	 0.000	689.741	 0.000	9324.694	
28-Dec-2017	sub235	935	  1	 67	  1	 2.00	  9	  2	692.823	692.825	693.322	697.898	699.324	 4.572	9324.694	
28-Dec-2017	sub235	935	  1	 68	  1	 0.00	  6	  3	705.684	705.690	706.187	707.729	712.189	 1.531	9324.694	
28-Dec-2017	sub235	935	  1	 69	  1	 2.00	 12	  2	718.492	718.489	718.986	720.760	724.988	 1.764	9324.694	
28-Dec-2017	sub235	935	  1	 70	  1	 0.00	  6	  3	727.351	727.358	727.856	728.900	733.857	 1.030	9324.694	
28-Dec-2017	sub235	935	  1	 71	  1	 4.00	 12	  4	737.279	737.272	737.786	739.477	743.788	 1.682	9324.694	
28-Dec-2017	sub235	935	  1	 72	  1	 0.00	  7	  1	748.130	748.131	748.629	750.635	754.630	 1.992	9324.694	
28-Dec-2017	sub235	935	  1	  1	  2	 0.00	  9	  2	 0.000	 0.003	 0.501	 3.617	 6.502	 3.115	10111.282	
28-Dec-2017	sub235	935	  1	  2	  2	 2.00	  7	  3	 8.270	 8.276	 8.773	11.260	14.775	 2.483	10111.282	
28-Dec-2017	sub235	935	  1	  3	  2	 0.00	  6	  1	20.015	20.014	20.511	21.638	26.513	 1.113	10111.282	
28-Dec-2017	sub235	935	  1	  4	  2	 2.00	 12	  2	32.169	32.166	32.663	34.437	38.665	 1.760	10111.282	
28-Dec-2017	sub235	935	  1	  5	  2	 0.00	  7	  1	44.110	44.103	44.616	47.402	50.618	 2.782	10111.282	
28-Dec-2017	sub235	935	  1	  6	  2	 0.00	  6	  1	55.939	55.940	56.437	57.415	62.439	 0.961	10111.282	
28-Dec-2017	sub235	935	  1	  7	  2	 0.00	  6	  3	69.027	69.020	69.534	71.408	75.536	 1.864	10111.282	
28-Dec-2017	sub235	935	  1	  8	  2	 2.00	 12	  2	78.047	78.056	78.553	80.062	84.555	 1.493	10111.282	
28-Dec-2017	sub235	935	  1	  9	  2	 0.00	  7	  3	86.913	86.909	87.406	90.125	93.408	 2.703	10111.282	
28-Dec-2017	sub235	935	  1	 10	  2	 2.00	  9	  4	95.596	95.596	96.093	97.436	102.095	 1.336	10111.282	
28-Dec-2017	sub235	935	  1	 11	  2	 0.00	  9	  4	104.158	104.151	104.664	 0.000	110.666	 0.000	10111.282	
28-Dec-2017	sub235	935	  1	 12	  2	 0.00	  9	  2	113.265	113.269	113.766	116.800	119.768	 3.022	10111.282	
28-Dec-2017	sub235	935	  1	 13	  2	 0.00	  6	  3	123.707	123.713	124.211	125.835	130.212	 1.609	10111.282	
28-Dec-2017	sub235	935	  1	 14	  2	 4.00	 12	  4	135.732	135.733	136.230	137.341	142.232	 1.093	10111.282	
28-Dec-2017	sub235	935	  1	 15	  2	 2.00	  7	  3	147.519	147.520	148.018	150.770	154.019	 2.738	10111.282	
28-Dec-2017	sub235	935	  1	 16	  2	 0.00	  7	  3	156.844	156.838	157.352	 0.000	163.353	 0.000	10111.282	
28-Dec-2017	sub235	935	  1	 17	  2	 4.00	 12	  4	166.587	166.586	167.083	168.675	173.085	 1.583	10111.282	
28-Dec-2017	sub235	935	  1	 18	  2	 0.00	  7	  1	177.194	177.196	177.694	179.468	183.695	 1.757	10111.282	
28-Dec-2017	sub235	935	  1	 19	  2	 0.00	  6	  3	186.832	186.829	187.326	188.569	193.327	 1.228	10111.282	
28-Dec-2017	sub235	935	  1	 20	  2	 2.00	 12	  2	194.992	194.985	195.499	196.942	201.501	 1.431	10111.282	
28-Dec-2017	sub235	935	  1	 21	  2	 2.00	  9	  4	207.331	207.336	207.834	209.011	213.835	 1.168	10111.282	
28-Dec-2017	sub235	935	  1	 22	  2	 2.00	 12	  2	219.535	219.538	220.036	221.080	226.037	 1.030	10111.282	
28-Dec-2017	sub235	935	  1	 23	  2	 4.00	 12	  4	230.726	230.729	231.226	232.254	237.228	 1.023	10111.282	
28-Dec-2017	sub235	935	  1	 24	  2	 0.00	  9	  2	239.293	239.300	239.797	242.549	245.799	 2.739	10111.282	
28-Dec-2017	sub235	935	  1	 25	  2	 2.00	 12	  2	250.510	250.507	251.005	252.248	257.006	 1.228	10111.282	
28-Dec-2017	sub235	935	  1	 26	  2	 0.00	  6	  1	259.919	259.924	260.421	261.615	266.423	 1.187	10111.282	
28-Dec-2017	sub235	935	  1	 27	  2	 4.00	 12	  4	268.279	268.280	268.777	269.855	274.778	 1.063	10111.282	
28-Dec-2017	sub235	935	  1	 28	  2	 2.00	 12	  2	279.436	279.437	279.934	281.261	285.936	 1.313	10111.282	
28-Dec-2017	sub235	935	  1	 29	  2	 0.00	  6	  3	288.890	288.887	289.384	293.148	295.386	 3.750	10111.282	
28-Dec-2017	sub235	935	  1	 30	  2	 0.00	  6	  1	299.075	299.083	299.580	300.509	305.582	 0.922	10111.282	
28-Dec-2017	sub235	935	  1	 31	  2	 0.00	  6	  3	307.251	307.256	307.754	309.080	313.755	 1.309	10111.282	
28-Dec-2017	sub235	935	  1	 32	  2	 2.00	  9	  4	319.181	319.176	319.674	321.033	325.675	 1.357	10111.282	
28-Dec-2017	sub235	935	  1	 33	  2	 0.00	  7	  1	330.624	330.632	331.129	333.848	337.131	 2.716	10111.282	
28-Dec-2017	sub235	935	  1	 34	  2	 2.00	  9	  4	343.650	343.646	344.144	345.487	350.145	 1.334	10111.282	
28-Dec-2017	sub235	935	  1	 35	  2	 0.00	  9	  2	354.025	354.025	354.522	356.860	360.523	 2.323	10111.282	
28-Dec-2017	sub235	935	  1	 36	  2	 4.00	 12	  4	362.165	362.165	362.662	364.154	368.664	 1.478	10111.282	
28-Dec-2017	sub235	935	  1	 37	  2	 2.00	  7	  3	375.072	375.080	375.577	380.070	381.578	 4.476	10111.282	
28-Dec-2017	sub235	935	  1	 38	  2	 2.00	  9	  4	387.300	387.298	387.795	391.360	393.797	 3.553	10111.282	
28-Dec-2017	sub235	935	  1	 39	  2	 0.00	  6	  3	396.505	396.499	397.013	397.908	402.998	 0.886	10111.282	
28-Dec-2017	sub235	935	  1	 40	  2	 2.00	  7	  3	408.021	408.021	408.519	411.072	414.520	 2.549	10111.282	
28-Dec-2017	sub235	935	  1	 41	  2	 0.00	  6	  1	417.538	417.538	418.035	419.709	424.036	 1.664	10111.282	
28-Dec-2017	sub235	935	  1	 42	  2	 6.00	 12	  2	429.592	429.590	430.088	432.326	436.089	 2.235	10111.282	
28-Dec-2017	sub235	935	  1	 43	  2	 0.00	  7	  1	439.608	439.604	440.101	442.704	446.103	 2.598	10111.282	
28-Dec-2017	sub235	935	  1	 44	  2	 4.00	 12	  4	449.005	449.004	449.501	451.690	455.503	 2.181	10111.282	
28-Dec-2017	sub235	935	  1	 45	  2	 2.00	  9	  4	458.399	458.404	458.901	460.675	464.903	 1.772	10111.282	
28-Dec-2017	sub235	935	  1	 46	  2	 0.00	  7	  1	470.719	470.722	471.219	473.308	477.221	 2.079	10111.282	
28-Dec-2017	sub235	935	  1	 47	  2	 0.00	  9	  2	481.434	481.432	481.929	483.372	487.931	 1.432	10111.282	
28-Dec-2017	sub235	935	  1	 48	  2	 2.00	  9	  2	489.505	489.506	490.003	492.805	496.005	 2.798	10111.282	
28-Dec-2017	sub235	935	  1	 49	  2	 4.00	 12	  4	501.712	501.708	502.205	503.249	508.207	 1.028	10111.282	
28-Dec-2017	sub235	935	  1	 50	  2	 0.00	  6	  1	514.923	514.921	515.418	516.380	521.420	 0.958	10111.282	
28-Dec-2017	sub235	935	  1	 51	  2	 0.00	  6	  1	522.475	522.481	522.978	528.532	528.980	 5.549	10111.282	
28-Dec-2017	sub235	935	  1	 52	  2	 0.00	  9	  2	534.335	534.335	534.832	540.353	540.833	 5.504	10111.282	
28-Dec-2017	sub235	935	  1	 53	  2	 0.00	  7	  1	543.643	543.652	544.149	545.741	550.151	 1.579	10111.282	
28-Dec-2017	sub235	935	  1	 54	  2	 0.00	  6	  3	554.447	554.444	554.942	555.920	560.943	 0.969	10111.282	
28-Dec-2017	sub235	935	  1	 55	  2	 2.00	 12	  2	562.761	562.767	563.264	564.591	569.266	 1.319	10111.282	
28-Dec-2017	sub235	935	  1	 56	  2	 0.00	  6	  1	571.889	571.885	572.383	573.212	578.384	 0.816	10111.282	
28-Dec-2017	sub235	935	  1	 57	  2	 4.00	 12	  4	584.365	584.369	584.866	588.331	590.868	 3.452	10111.282	
28-Dec-2017	sub235	935	  1	 58	  2	 2.00	  9	  4	594.521	594.515	595.029	598.030	601.014	 2.985	10111.282	
28-Dec-2017	sub235	935	  1	 59	  2	 0.00	  7	  1	602.020	602.025	602.523	603.517	608.524	 0.987	10111.282	
28-Dec-2017	sub235	935	  1	 60	  2	 0.00	  7	  3	609.962	609.967	610.464	 0.000	616.465	 0.000	10111.282	
28-Dec-2017	sub235	935	  1	 61	  2	 4.00	 12	  4	622.707	622.716	623.213	624.407	629.214	 1.192	10111.282	
28-Dec-2017	sub235	935	  1	 62	  2	 0.00	  6	  3	635.109	635.116	635.614	637.238	641.615	 1.615	10111.282	
28-Dec-2017	sub235	935	  1	 63	  2	 0.00	  6	  1	646.000	646.009	646.506	648.031	652.507	 1.514	10111.282	
28-Dec-2017	sub235	935	  1	 64	  2	 0.00	  9	  2	655.456	655.458	655.956	658.227	661.957	 2.256	10111.282	
28-Dec-2017	sub235	935	  1	 65	  2	 2.00	  7	  3	667.404	667.412	667.909	670.877	673.911	 2.959	10111.282	
28-Dec-2017	sub235	935	  1	 66	  2	 2.00	  9	  4	679.119	679.116	679.614	682.134	685.615	 2.518	10111.282	
28-Dec-2017	sub235	935	  1	 67	  2	 2.00	  9	  2	688.211	688.218	688.715	691.467	694.717	 2.736	10111.282	
28-Dec-2017	sub235	935	  1	 68	  2	 0.00	  6	  3	700.904	700.901	701.398	702.260	707.400	 0.853	10111.282	
28-Dec-2017	sub235	935	  1	 69	  2	 2.00	 12	  2	714.281	714.280	714.777	717.032	720.779	 2.249	10111.282	
28-Dec-2017	sub235	935	  1	 70	  2	 0.00	  7	  1	723.893	723.895	724.393	726.133	730.394	 1.729	10111.282	
28-Dec-2017	sub235	935	  1	 71	  2	 6.00	  7	  1	735.470	735.467	735.965	737.424	741.966	 1.453	10111.282	
28-Dec-2017	sub235	935	  1	 72	  2	 2.00	  7	  3	743.418	743.425	743.922	745.763	749.924	 1.831	10111.282	
